Time Stamp,Accel x,Accel y,Accel z,Gyro x,Gyro y,Gyro z,Yaw (Deg),Pitch (Deg),Roll (Deg)
273657864,-1940,0302,-0234,0013,0010,0002,092.6871,007.1236,008.7163
273663511,-1947,0319,-0228,0020,0006,0006,090.8000,006.7599,008.8579
273669091,-1924,0329,-0263,0018,-0001,0010,088.5882,006.5664,009.3461
273674713,-1944,0315,-0232,0022,-0004,0010,092.0238,007.7488,009.7307
273680361,-1965,0320,-0254,0026,-0002,0014,089.3129,006.6095,009.1540
273686063,-1983,0298,-0244,0022,0011,0018,091.9222,007.3570,009.2652
273691816,-1977,0310,-0254,0023,0019,0013,092.5698,006.8788,008.4496
273697605,-1982,0306,-0242,0009,0024,0010,092.5081,007.2861,008.9811
273703234,-2001,0299,-0239,0000,0023,0006,091.4411,006.8332,008.7524
273708703,-2000,0311,-0257,0008,0019,0002,091.8863,006.7275,008.4772
273714282,-1989,0313,-0238,0019,0009,0006,092.8369,007.2787,008.8708
273719879,-1984,0320,-0246,0034,-0005,0010,090.2081,006.6758,008.9491
273725493,-1986,0317,-0263,0031,-0012,0013,090.7968,006.9988,009.1857
273731237,-1976,0327,-0257,0017,-0015,0017,093.0808,007.4947,009.0555
273736946,-1952,0337,-0233,0002,-0018,0021,091.0967,007.2702,009.4457
273742636,-1945,0336,-0226,0007,-0017,0023,087.4860,006.6193,009.8450
273748300,-1955,0329,-0265,0008,-0017,0020,087.1598,006.5054,009.8000
273753952,-1961,0325,-0249,0015,-0010,0017,092.6570,007.7467,009.5222
273759643,-1967,0320,-0257,0017,0001,0019,090.4120,007.0493,009.3983
273765300,-1991,0324,-0261,0014,0014,0012,092.1998,007.3817,009.2207
273771027,-1985,0320,-0244,0017,0012,-0002,092.0864,007.3662,009.2404
273776696,-1978,0333,-0250,0015,0005,-0006,090.4187,006.8589,009.1414
273782261,-1983,0332,-0241,0030,-0005,-0013,090.1553,007.1191,009.5888
273787926,-1967,0339,-0266,0038,-0007,-0009,089.1632,006.7907,009.4855
273793574,-1959,0327,-0242,0037,-0011,-0009,091.6195,007.6782,009.8061
273799281,-1939,0326,-0265,0030,-0011,-0005,089.4982,006.8331,009.4241
273804952,-1941,0329,-0283,0022,-0004,0003,092.6143,007.7575,009.5534
273810594,-1935,0329,-0250,0011,0005,0014,094.0151,008.2193,009.6292
273816275,-1956,0316,-0290,0011,0012,0021,090.1265,007.1598,009.6558
273822002,-1973,0324,-0295,0013,0015,0028,096.4654,008.4932,009.1141
273827746,-1982,0313,-0256,0030,0012,0032,095.3148,008.3753,009.3624
273833449,-2003,0304,-0249,0038,0009,0028,092.0854,007.1300,008.9324
273839132,-2001,0313,-0238,0040,0009,0018,092.5621,006.9884,008.5980
273844777,-1993,0327,-0233,0034,-0004,0009,090.2421,006.6617,008.9195
273850402,-1985,0315,-0259,0033,-0009,0002,088.5588,006.5602,009.3558
273856009,-1971,0339,-0255,0030,-0015,-0007,093.0247,007.4123,008.9729
273861624,-1964,0342,-0274,0033,0000,-0010,089.8811,007.2407,009.8412
273867137,-1964,0342,-0241,0035,0003,-0006,092.0931,007.8758,009.8743
273872727,-1969,0347,-0265,0028,0003,0003,088.0126,006.7764,009.8749
273878322,-1981,0334,-0268,0028,0005,0008,090.8631,007.6298,010.0065
273883997,-1964,0313,-0244,0023,0014,0010,092.0730,007.5910,009.5181
273889680,-1979,0326,-0233,0026,0012,0010,091.0209,006.9117,008.9935
273895367,-1972,0318,-0250,0025,0000,0011,088.5169,006.5810,009.3995
273900872,-1969,0314,-0236,0026,-0008,0007,091.6247,007.1742,009.1358
273906520,-1971,0312,-0237,0029,-0010,0007,089.9440,006.6850,009.0491
273912200,-1965,0314,-0234,0026,-0005,0008,090.4905,006.7734,008.9861
273917822,-1974,0337,-0254,0020,0005,0006,089.8592,006.6910,009.0880
273923425,-1974,0318,-0277,0012,0010,0011,090.2791,007.2835,009.7565
273929135,-1985,0318,-0258,0017,0014,0012,094.7321,007.9623,009.0725
273934884,-2004,0325,-0230,0022,0020,0017,091.9106,007.2259,009.1076
273940585,-1997,0317,-0232,0033,0013,0017,088.1569,006.3738,009.2251
273946343,-1986,0327,-0237,0035,0011,0009,089.6228,006.5634,008.9913
273952021,-1970,0320,-0200,0030,0011,0001,089.1509,006.7295,009.3890
273957613,-1961,0306,-0238,0026,0001,-0004,084.8789,005.6010,009.2017
273963192,-1971,0297,-0240,0021,-0003,-0004,091.7973,006.9709,008.8244
273968797,-1939,0308,-0247,0013,-0007,-0009,092.1991,006.8411,008.5318
273974495,-1955,0320,-0247,0013,-0004,-0002,091.9220,007.1940,009.0729
273980136,-1941,0327,-0275,0017,0003,0006,090.7864,007.0880,009.3212
273985743,-1949,0331,-0239,0031,0008,0011,093.5016,008.0375,009.5872
273991488,-1937,0334,-0256,0038,0007,0014,088.5021,006.7379,009.6456
273997160,-1963,0313,-0215,0034,0004,0014,090.9339,007.4862,009.7984
274002825,-1974,0311,-0222,0020,0001,0008,087.3300,005.9986,008.9652
274008398,-1979,0286,-0203,0002,0005,-0001,088.9842,006.3678,008.9478
274013938,-1976,0283,-0226,-0007,0007,-0007,088.6654,005.7325,008.1453
274019485,-1983,0289,-0253,-0006,0001,-0011,092.2315,006.5261,008.1432
274025123,-1988,0302,-0230,0017,-0010,-0012,094.6968,007.2613,008.3001
274030812,-1986,0319,-0225,0038,-0011,-0013,090.0911,006.4221,008.6687
274036488,-1965,0318,-0228,0056,-0005,-0007,088.3603,006.3685,009.1721
274042090,-2000,0339,-0214,0058,0001,0001,089.0440,006.5472,009.1892
274047649,-1985,0360,-0233,0057,0006,0009,085.3498,005.9708,009.6560
274053288,-1984,0375,-0243,0054,0009,0013,086.3805,006.6546,010.3496
274059017,-1971,0359,-0249,0059,0010,0014,086.3040,006.8861,010.7479
274064792,-1968,0355,-0230,0061,0011,0014,088.3259,007.1107,010.2612
274070530,-1976,0352,-0241,0050,0014,0009,086.0149,006.4828,010.2182
274076234,-1979,0335,-0246,0037,0010,0011,087.9407,006.8893,010.0846
274082016,-1969,0351,-0266,0031,0002,0009,089.8058,006.9932,009.5386
274087620,-1983,0331,-0266,0035,0002,0017,090.4711,007.6347,010.1741
274093343,-1963,0331,-0241,0037,0002,0016,092.1991,007.5171,009.3898
274099057,-1966,0316,-0236,0042,-0003,0021,088.8983,006.8082,009.5990
274104746,-1967,0313,-0227,0042,-0009,0021,090.1255,006.7409,009.0715
274110435,-1959,0314,-0232,0048,-0014,0019,089.0472,006.4566,009.0389
274116109,-1935,0294,-0234,0051,-0023,0021,089.7322,006.6810,009.1172
274121837,-1933,0294,-0253,0044,-0027,0011,091.8568,006.8122,008.5921
274127587,-1925,0264,-0263,0028,-0019,0005,094.0304,007.4142,008.6506
274133243,-1944,0257,-0265,0008,-0008,0004,098.2055,007.7143,007.7526
274138797,-1946,0276,-0256,-0003,0003,-0002,098.9899,007.6859,007.5101
274144323,-1981,0263,-0236,-0008,0003,-0001,095.7269,007.3913,008.1118
274149880,-2005,0275,-0245,-0004,0010,-0005,094.9712,006.6620,007.5015
274155453,-1993,0311,-0220,0023,0014,-0001,094.8423,006.9216,007.8335
274161126,-1981,0330,-0239,0049,0009,0003,087.7997,006.1373,008.9878
274166739,-1996,0341,-0220,0060,-0003,0008,089.2576,006.8518,009.5074
274172341,-1971,0344,-0240,0057,-0014,0007,085.7511,006.1245,009.7098
274178006,-1973,0352,-0209,0041,-0014,0009,088.3787,006.9172,009.9223
274183671,-1974,0331,-0245,0027,-0013,0011,083.4208,005.8212,010.1386
274189490,-1947,0348,-0263,0006,-0008,0011,090.6430,007.1438,009.4233
274195113,-1978,0352,-0274,-0006,0002,0012,090.2287,007.6156,010.2210
274200780,-1998,0331,-0290,-0001,0014,0014,091.1959,007.7783,010.0776
274206504,-1997,0323,-0254,0013,0021,0015,094.7343,008.1904,009.3305
274212222,-2006,0344,-0240,0034,0017,0017,090.9520,007.0335,009.1726
274217949,-1985,0331,-0241,0048,0004,0011,087.8297,006.6831,009.7944
274223640,-2000,0340,-0221,0053,-0002,0011,089.4471,006.8387,009.4253
274229245,-1956,0342,-0224,0042,-0001,0011,085.9778,006.1488,009.6683
274234932,-1986,0327,-0237,0026,-0007,0011,086.5421,006.4633,009.9511
274240643,-1946,0304,-0253,0005,0001,0013,089.4848,006.7371,009.2760
274246238,-1970,0301,-0218,-0012,0003,0011,093.2497,007.3653,008.8422
274251892,-1985,0294,-0254,0001,0010,0008,088.6100,006.0961,008.6673
274257482,-1993,0293,-0222,0022,0013,0008,094.5539,007.3296,008.3974
274263180,-1992,0273,-0237,0036,0019,0011,089.8570,006.1617,008.3585
274268897,-1979,0297,-0228,0028,0025,0006,094.7208,006.7957,007.7295
274274551,-1992,0307,-0264,0025,0022,0008,090.2885,006.4625,008.6336
274280205,-1991,0309,-0244,0016,0013,0014,094.2416,007.5725,008.7772
274285940,-1958,0312,-0263,0014,0008,0013,091.1397,006.8129,008.8284
274291655,-1954,0313,-0236,0014,0002,0014,093.5909,007.6552,009.0879
274297356,-1958,0310,-0242,0005,0004,0011,089.8088,006.6844,009.1027
274302978,-1949,0313,-0228,-0002,0001,0009,091.3670,006.9826,008.9839
274308545,-1941,0313,-0241,-0013,-0004,0008,089.1469,006.5398,009.1362
274314190,-1963,0293,-0249,-0020,0006,0006,091.0274,007.0228,009.1626
274319781,-1944,0297,-0245,-0020,0015,0004,093.9215,007.1597,008.4101
274325407,-1963,0304,-0214,-0003,0018,0006,092.6963,007.0923,008.7116
274331027,-1964,0299,-0221,-0001,0018,0010,087.9886,006.0336,008.8143
274336668,-1969,0298,-0228,-0004,0019,0013,090.0571,006.3840,008.6378
274342378,-1970,0323,-0218,-0002,0020,0008,090.8816,006.5490,008.6013
274347981,-1982,0318,-0227,0005,0015,0012,087.0521,006.1902,009.3956
274353641,-1990,0313,-0237,0016,0007,0011,089.1463,006.4763,009.0813
274359330,-1979,0348,-0258,0030,-0004,0010,090.6579,006.7279,008.9201
274364926,-1977,0326,-0243,0020,-0008,0004,089.8569,007.3685,010.0857
274370559,-1965,0333,-0266,0015,-0009,0003,090.1024,006.8506,009.2794
274376153,-1953,0322,-0255,0010,-0006,0001,092.1673,007.6769,009.6540
274381734,-1942,0336,-0226,0011,-0002,-0007,091.6999,007.2943,009.3244
274387337,-1929,0317,-0240,0024,-0001,-0005,086.9875,006.4620,009.8551
274392950,-1939,0322,-0220,0032,-0007,-0002,090.7811,007.0264,009.2889
274398602,-1940,0333,-0234,0040,-0012,0003,087.4943,006.3148,009.4372
274404311,-1947,0323,-0246,0035,-0006,0009,088.6303,006.8214,009.7726
274409888,-1959,0331,-0220,0031,0013,0016,090.8912,007.1287,009.3866
274415614,-1976,0331,-0229,0019,0026,0015,086.5479,006.2043,009.6208
274421338,-2007,0329,-0232,0004,0022,0019,088.3629,006.5614,009.4981
274427011,-2031,0303,-0243,-0003,0008,0015,088.6795,006.4943,009.2919
274432590,-2039,0303,-0234,0003,-0004,0014,092.3854,006.7558,008.4274
274438188,-2021,0287,-0230,0014,-0015,0013,090.9784,006.4402,008.4549
274443893,-1984,0300,-0241,0031,-0025,0010,092.2041,006.4088,008.0411
274449543,-1965,0294,-0212,0043,-0036,0002,092.1344,006.8798,008.6606
274455223,-1951,0312,-0205,0046,-0039,-0005,088.7909,005.9644,008.4817
274460919,-1930,0318,-0224,0039,-0040,-0010,086.5182,005.8948,009.1471
274466593,-1925,0331,-0209,0029,-0030,-0016,088.7586,006.5662,009.3625
274472300,-1928,0330,-0258,0020,-0015,-0013,085.5351,006.0549,009.7786
274477979,-1942,0341,-0241,0018,0009,-0007,091.9614,007.6444,009.6996
274483618,-1981,0356,-0250,0018,0024,-0001,088.4199,006.8981,009.9815
274489275,-1976,0339,-0253,0019,0024,0005,088.6121,007.1013,010.2094
274494996,-2004,0330,-0252,0017,0020,0011,090.4238,007.2022,009.6729
274500737,-2015,0338,-0232,0020,0008,0017,090.8580,007.0512,009.3150
274506378,-2019,0335,-0231,0032,0005,0011,087.6969,006.4177,009.5410
274512073,-1996,0327,-0196,0036,-0021,0007,088.0986,006.4254,009.4058
274517758,-1958,0316,-0213,0027,-0039,-0002,084.0062,005.4078,009.2862
274523426,-1947,0333,-0227,0015,-0049,-0011,087.8713,006.1918,009.1440
274529148,-1927,0302,-0241,0006,-0044,-0011,087.7502,006.5741,009.7682
274534816,-1940,0304,-0227,0010,-0037,-0004,092.3282,007.0539,008.8374
274540476,-1941,0314,-0254,0015,-0014,0008,090.0179,006.5368,008.9108
274546124,-1964,0314,-0234,0020,0004,0010,092.6559,007.4380,009.2175
274551766,-1972,0335,-0249,0029,0022,0016,089.8920,006.6190,009.0683
274557513,-2014,0348,-0245,0041,0027,0022,090.1775,007.1668,009.7270
274563251,-2026,0345,-0254,0041,0022,0027,088.5168,006.7992,009.8172
274568998,-2028,0348,-0264,0039,0010,0021,090.0039,007.0673,009.6507
274574698,-2027,0333,-0225,0024,-0011,0006,090.7108,007.3210,009.7427
274580340,-1983,0318,-0233,0014,-0025,-0004,087.2709,006.1412,009.2884
274586018,-1972,0307,-0227,0017,-0037,-0010,090.0038,006.6524,009.0799
274591725,-1957,0291,-0241,0020,-0038,-0020,089.9586,006.4425,008.8046
274597423,-1948,0274,-0291,0010,-0025,-0022,093.4877,006.9893,008.4001
274603123,-1946,0290,-0259,0007,-0011,-0019,100.8318,008.5764,007.9460
274608825,-1951,0311,-0259,0014,0005,-0016,094.5677,007.3707,008.5251
274614504,-1965,0312,-0256,0033,0013,-0005,093.1198,007.4775,009.1165
274620224,-1984,0333,-0244,0053,0015,-0001,092.8204,007.3099,009.0023
274625846,-1984,0332,-0258,0065,0015,0005,089.4351,006.8715,009.5810
274631472,-1993,0341,-0222,0065,0017,0006,091.5451,007.3568,009.4866
274637217,-2012,0325,-0232,0063,0021,0008,085.9956,006.1290,009.7343
274642851,-2006,0358,-0253,0058,0017,0014,089.3315,006.5287,009.1218
274648561,-2013,0359,-0231,0055,0012,0019,088.6875,007.1381,010.2348
274654320,-2007,0329,-0259,0056,0013,0019,086.0246,006.3643,010.0993
274660093,-1995,0329,-0207,0051,0008,0018,092.3364,007.3636,009.2127
274665776,-1986,0293,-0249,0057,0009,0011,084.9022,005.6684,009.3802
274671457,-1977,0297,-0229,0058,0006,0007,094.8297,007.2384,008.2669
274677076,-1968,0309,-0234,0067,-0002,0000,090.6006,006.4457,008.5689
274682584,-1958,0306,-0277,0070,-0003,0001,090.5365,006.7175,008.9524
274688199,-1951,0298,-0226,0080,-0001,-0005,096.0298,008.1067,008.8638
274693786,-1940,0311,-0224,0085,0003,-0004,089.9964,006.3861,008.6596
274699370,-1960,0324,-0230,0091,0013,-0001,089.0858,006.5138,009.1359
274705005,-1957,0318,-0269,0085,0023,0002,088.7138,006.6192,009.4120
274710648,-1961,0331,-0247,0073,0022,0007,094.0787,007.8736,009.2013
274716356,-1978,0293,-0237,0056,0023,0009,089.4761,006.9719,009.6307
274722023,-1992,0321,-0203,0047,0018,0016,092.5867,006.7327,008.2806
274727737,-1998,0309,-0216,0048,0009,0021,084.7798,005.6157,009.2676
274733419,-2021,0290,-0195,0058,0000,0025,088.6324,006.1474,008.7396
274738931,-1986,0303,-0192,0061,0003,0023,087.0908,005.4019,008.1284
274744564,-1996,0267,-0199,0059,0002,0024,085.4978,005.4598,008.7423
274750242,-1973,0277,-0219,0050,-0004,0017,090.5000,005.6563,007.4862
274755895,-1955,0281,-0212,0036,-0011,0013,091.6428,006.3408,008.0578
274761650,-1964,0301,-0233,0031,-0017,0010,090.0500,006.0836,008.1934
274767357,-1948,0289,-0229,0026,-0024,0008,091.0397,006.7569,008.7864
274773060,-1936,0279,-0245,0014,-0012,0010,091.6353,006.6047,008.4000
274778768,-1933,0288,-0276,0002,0005,0012,094.7035,007.1811,008.1828
274784399,-1966,0292,-0250,0003,0020,0012,097.0915,008.1093,008.5003
274789970,-1974,0290,-0257,0010,0034,0009,093.4037,007.0693,008.4422
274795603,-1992,0293,-0263,0015,0034,0004,094.9216,007.3760,008.3447
274801259,-2005,0316,-0240,0018,0030,0002,095.1363,007.4517,008.3666
274806889,-2000,0322,-0212,0016,0017,-0003,090.0295,006.6695,009.0101
274812526,-2006,0342,-0236,0017,-0001,0002,086.3204,005.8918,009.1566
274818150,-1993,0340,-0231,0006,-0011,0011,088.0366,006.6726,009.7273
274823830,-1984,0324,-0240,0000,-0016,0012,087.4261,006.4833,009.6769
274829379,-1982,0308,-0280,-0006,-0016,0010,090.0254,006.8221,009.2370
274835039,-1977,0288,-0229,-0006,-0012,0005,096.0733,008.0654,008.7835
274840616,-1956,0296,-0232,-0007,-0014,0006,091.2161,006.3645,008.2362
274846207,-1970,0297,-0247,-0009,-0006,0004,091.3788,006.7100,008.6427
274851767,-1968,0290,-0242,-0014,0005,0003,093.1994,007.0969,008.5641
274857360,-1964,0284,-0266,-0017,0010,0001,093.1328,006.9100,008.3593
274862992,-1978,0295,-0232,-0018,0021,0004,096.7832,007.7232,008.2105
274868696,-1992,0290,-0230,-0011,0020,0006,090.8172,006.4689,008.5175
274874344,-2003,0313,-0214,0005,0022,0013,091.8933,006.5222,008.2576
274880025,-1997,0289,-0231,0016,0011,0017,087.3213,005.9637,008.9550
274885779,-2016,0309,-0220,0018,0010,0018,092.6182,006.5998,008.1423
274891480,-2020,0314,-0249,0019,0009,0019,088.4504,006.1018,008.7800
274897179,-2014,0318,-0247,0005,0000,0013,092.0998,007.0238,008.8428
274902691,-1998,0330,-0234,-0003,-0001,0005,091.1528,006.8880,008.9803
274908253,-1976,0321,-0252,-0015,-0006,0000,088.5619,006.5507,009.4117
274913720,-1951,0311,-0249,-0016,-0002,0001,091.7833,007.2153,009.2091
274919343,-1940,0306,-0233,-0010,0008,0003,092.1365,007.1718,009.0386
274924935,-1929,0299,-0233,-0002,0002,0002,090.6224,006.7234,008.9548
274930510,-1916,0294,-0247,0003,-0003,-0003,091.4214,006.8004,008.7975
274936101,-1932,0313,-0242,0014,-0002,-0007,093.5465,007.2714,008.7135
274941708,-1947,0311,-0255,0021,0002,-0004,091.0080,007.0234,009.2334
274947316,-1947,0351,-0242,0029,0008,0004,092.9721,007.3989,009.0558
274952925,-1983,0360,-0256,0031,0011,0016,087.6032,006.9213,010.3523
274958739,-2015,0371,-0240,0030,0020,0019,089.1343,007.2839,010.2833
274964471,-2012,0362,-0239,0028,0027,0016,086.2131,006.6181,010.4500
274970278,-2009,0338,-0205,0026,0023,0018,087.1275,006.6744,010.1709
274976084,-1986,0321,-0197,0020,0006,0016,084.5376,005.6204,009.4726
274981725,-1984,0313,-0188,0016,-0010,0011,085.2163,005.5763,009.1477
274987437,-1949,0301,-0225,0020,-0034,0000,084.5041,005.2947,008.9363
274992937,-1925,0302,-0259,0029,-0050,-0003,090.6977,006.5751,008.7609
274998559,-1925,0298,-0242,0038,-0045,0004,094.2652,007.6156,008.9227
275004234,-1911,0324,-0269,0042,-0018,0011,092.4267,007.0291,008.7897
275009986,-1920,0325,-0281,0047,0002,0020,093.2274,007.9660,009.6930
275015601,-1961,0331,-0280,0044,0023,0024,094.3749,008.2296,009.6053
275021330,-1968,0325,-0276,0037,0031,0026,093.5959,007.9878,009.5825
275027064,-1990,0313,-0264,0023,0030,0024,093.8211,007.8654,009.3542
275032770,-1994,0313,-0240,0015,0022,0011,093.5788,007.4171,008.8890
275038503,-1998,0321,-0225,0020,0004,0004,090.6367,006.6931,008.9220
275044057,-1995,0309,-0221,0025,-0014,-0005,088.3664,006.2989,009.1388
275049700,-1991,0322,-0226,0019,-0023,-0010,089.1663,006.2235,008.7592
275055400,-1997,0305,-0236,0016,-0031,-0006,088.5041,006.3929,009.2329
275061068,-1965,0330,-0231,0023,-0024,0003,091.5152,006.6751,008.6180
275066705,-1980,0313,-0208,0028,-0006,0011,088.1801,006.5938,009.6488
275072370,-1989,0332,-0233,0034,0001,0019,087.0439,005.8353,008.9052
275078043,-1988,0314,-0222,0036,0007,0024,088.7857,006.6766,009.5497
275083715,-1964,0310,-0215,0033,0005,0019,088.8123,006.2430,008.9107
275089388,-1994,0313,-0252,0031,0002,0017,088.2305,006.1539,008.9791
275095044,-1986,0317,-0253,0039,-0002,0016,092.7557,007.2168,008.9152
275100707,-1984,0303,-0267,0026,-0005,0017,091.9839,007.1537,009.0887
275106370,-1993,0292,-0225,0015,-0010,0014,095.1291,007.6144,008.6363
275112028,-1972,0294,-0232,0015,-0014,0010,090.5815,006.2198,008.3012
275117710,-1964,0299,-0231,0021,-0011,0010,091.8933,006.6793,008.5026
275123439,-1951,0284,-0216,0032,-0004,0005,091.0790,006.6152,008.6754
275129084,-1945,0315,-0220,0028,-0008,-0002,090.7200,006.2045,008.2374
275134705,-1942,0294,-0182,0021,-0021,-0006,088.2497,006.3699,009.2868
275140404,-1937,0318,-0252,0020,-0024,-0008,085.0397,005.1800,008.5404
275146026,-1931,0320,-0242,0023,-0022,-0004,092.4166,007.5041,009.3930
275151689,-1939,0345,-0244,0021,-0008,0004,090.4530,006.9972,009.4077
275157312,-1954,0325,-0241,0019,0010,0009,088.6889,007.0635,010.1569
275163015,-1998,0313,-0257,0016,0019,0016,090.3134,006.9180,009.3527
275168778,-2007,0309,-0245,0017,0026,0024,093.2337,007.2846,008.8508
275174491,-2034,0320,-0218,0025,0025,0026,091.7806,006.8340,008.7470
275180189,-2039,0295,-0242,0029,0011,0025,087.4574,005.9639,008.9642
275185895,-2042,0279,-0199,0027,0000,0020,093.3665,006.7605,008.1656
275191445,-2013,0302,-0201,0029,-0014,0016,088.6989,005.4212,007.7566
275197146,-1968,0299,-0224,0036,-0028,0004,087.0200,005.6453,008.6181
275202816,-1933,0302,-0253,0043,-0041,-0003,090.7379,006.5003,008.6346
275208469,-1920,0309,-0232,0040,-0047,-0001,093.5770,007.4181,008.8949
275214091,-1922,0300,-0254,0034,-0034,0000,090.1892,006.7482,009.1508
275219615,-1928,0322,-0245,0025,-0006,0004,093.8391,007.4580,008.8563
275225242,-1955,0334,-0238,0023,0017,0007,090.5633,007.1177,009.5276
275230907,-1991,0324,-0234,0026,0033,0009,088.8619,006.8112,009.7156
275236584,-2003,0293,-0218,0020,0034,0014,089.4846,006.5983,009.1895
275242272,-2031,0301,-0240,0025,0024,0006,090.3100,006.0960,008.2223
275247857,-2016,0288,-0222,0025,0009,0002,092.2212,006.7068,008.4424
275253463,-1996,0279,-0207,0022,-0015,-0003,091.0257,006.1626,008.0958
275259124,-1969,0301,-0212,0027,-0037,-0007,089.9458,005.8064,007.9332
275264786,-1957,0292,-0232,0024,-0058,-0006,088.4761,006.0793,008.7852
275270426,-1942,0275,-0241,0023,-0056,-0001,092.2849,006.7267,008.4463
275276077,-1946,0296,-0262,0020,-0036,0003,094.8455,007.0067,008.0215
275281700,-1932,0290,-0274,0012,-0006,0010,094.9526,007.6296,008.7138
275287346,-1968,0285,-0237,0005,0024,0007,096.9627,008.0128,008.5208
275292960,-1969,0300,-0214,0002,0035,0010,092.7808,006.6574,008.2079
275298557,-2028,0293,-0188,0008,0028,0010,088.6549,006.0716,008.7166
275304190,-2012,0281,-0205,0021,0018,0004,086.0924,005.1664,008.1738
275309858,-2014,0291,-0182,0037,0007,0000,090.0820,005.8219,007.9208
275315355,-1991,0319,-0228,0038,-0005,0000,085.3041,005.0485,008.2387
275320837,-1994,0336,-0220,0037,-0015,-0001,089.3834,006.5570,009.1710
275326477,-1984,0345,-0205,0032,-0040,-0002,086.4926,006.1474,009.6014
275332113,-1973,0357,-0219,0037,-0046,-0003,084.0716,005.7487,009.8876
275337774,-1959,0353,-0242,0038,-0029,0002,085.2630,006.2744,010.2977
275343492,-1953,0364,-0227,0033,-0005,0010,088.3905,007.0144,010.2018
275349210,-1966,0370,-0232,0023,0008,0010,085.2065,006.4414,010.6078
275354939,-1955,0342,-0231,0014,0015,0010,085.8370,006.6349,010.6653
275360686,-1985,0317,-0227,0002,0017,0011,087.9627,006.6353,009.8171
275366379,-1993,0314,-0233,0001,0012,0011,089.3957,006.4135,008.9832
275372042,-2001,0308,-0227,0014,0009,0013,090.2792,006.6014,008.9509
275377690,-1998,0295,-0218,0021,-0001,0012,089.9673,006.3661,008.7291
275383355,-1995,0275,-0230,0026,-0014,0004,090.0727,006.1230,008.3581
275388997,-1988,0286,-0208,0028,-0027,0001,093.8223,006.5401,007.7864
275394661,-1933,0305,-0258,0042,-0027,0006,089.0848,005.8179,008.2318
275400332,-1946,0313,-0259,0048,-0017,0006,094.1258,007.6595,009.0339
275405974,-1928,0336,-0244,0047,-0005,0009,093.0284,007.4578,009.1461
275411602,-1928,0317,-0229,0033,-0004,0013,089.3088,007.0686,009.9454
275417270,-1951,0336,-0242,0010,0008,0023,089.4539,006.6489,009.2960
275422923,-1944,0307,-0218,0000,0018,0027,089.3746,007.0050,009.8377
275428491,-1971,0305,-0227,0000,0025,0029,088.9982,006.2677,008.9160
275434038,-1971,0308,-0200,0011,0021,0030,090.4264,006.5153,008.7913
275439729,-1974,0286,-0222,0020,0023,0023,086.1963,005.6190,008.8981
275445427,-2012,0307,-0208,0021,0023,0018,092.1895,006.4496,008.1578
275451161,-2028,0313,-0208,0011,0013,0018,087.2971,005.7571,008.7402
275456917,-2019,0300,-0192,-0001,-0003,0008,087.3083,005.7797,008.7768
275462389,-2021,0305,-0208,-0007,-0011,0005,086.2763,005.3334,008.4291
275467987,-2004,0281,-0208,-0004,-0011,0000,088.1630,005.8385,008.5919
275473502,-1996,0325,-0212,0006,0003,0000,090.4160,005.8626,007.9280
275478917,-1998,0331,-0220,0015,0000,-0003,086.6931,005.9836,009.3329
275484397,-1963,0329,-0224,0035,-0002,-0002,087.4496,006.2072,009.4062
275489987,-1974,0344,-0229,0048,-0001,0000,088.0927,006.4383,009.5213
275495466,-1965,0340,-0224,0045,0000,0002,087.3817,006.5194,009.9127
275500941,-1951,0345,-0197,0041,0004,0004,087.1530,006.3927,009.8041
275506551,-1942,0337,-0206,0035,0004,0002,083.2132,005.5958,010.0475
275512209,-1954,0328,-0190,0030,0001,0002,085.4860,005.9958,009.8201
275517756,-1948,0325,-0210,0025,0001,0001,083.8110,005.4220,009.4979
275523333,-1977,0310,-0230,0031,0000,0004,086.9628,006.1217,009.4661
275528879,-1955,0320,-0206,0039,0005,0006,090.6945,006.5939,008.8529
275534525,-1970,0338,-0240,0053,0014,0017,086.1444,005.8593,009.3477
275540255,-2013,0299,-0233,0050,0021,0025,089.5597,006.9881,009.7953
275545942,-1994,0298,-0212,0047,0024,0028,091.9082,006.4858,008.3152
275551692,-1974,0295,-0203,0046,0015,0030,088.8098,005.9363,008.5307
275557377,-1991,0291,-0238,0052,0002,0025,088.2070,005.7837,008.4993
275563017,-1957,0309,-0200,0056,-0012,0024,093.4351,006.8440,008.2973
275568664,-1945,0319,-0217,0057,-0017,0013,085.8687,005.6274,009.0487
275574402,-1961,0298,-0217,0046,-0022,0003,088.1720,006.3454,009.3416
275580075,-1960,0305,-0219,0034,-0014,0003,089.9571,006.2168,008.5496
275585717,-1936,0304,-0246,0031,0000,-0003,089.3327,006.3018,008.8748
275591221,-1956,0306,-0252,0031,0019,-0002,092.8630,007.2066,008.9214
275596918,-1963,0310,-0214,0032,0019,0002,093.1777,007.2590,008.8831
275602618,-1988,0297,-0220,0035,0010,0004,087.6651,005.9908,008.9829
275608235,-1994,0286,-0229,0031,0004,0004,090.5184,006.2671,008.4401
275613856,-2016,0278,-0232,0029,0000,0001,092.5468,006.5005,008.1276
275619344,-2003,0277,-0199,0027,-0004,0001,093.5481,006.4938,007.8278
275624969,-1988,0313,-0218,0036,-0018,0006,088.8899,005.5141,007.8754
275630631,-1981,0304,-0241,0044,-0026,0010,088.4745,006.2465,009.0778
275636339,-1979,0327,-0225,0047,-0025,0013,092.4546,006.9192,008.6771
275642072,-1976,0334,-0228,0028,-0007,0020,087.6347,006.3175,009.4819
275647710,-1982,0324,-0214,0014,0009,0017,088.0680,006.5050,009.6097
275653395,-1992,0289,-0202,0003,0021,0014,087.0833,006.0279,009.2456
275659046,-1997,0308,-0214,0022,0027,0015,088.9091,005.6985,008.1441
275664757,-1993,0302,-0243,0037,0028,0011,088.5175,006.0920,008.8456
275670492,-2002,0309,-0205,0047,0020,0012,093.0066,006.9758,008.5856
275676164,-1966,0305,-0243,0051,0000,0008,086.6278,005.6384,008.7924
275681653,-1973,0300,-0246,0048,-0013,0006,092.6795,007.0819,008.8175
275687276,-1956,0317,-0264,0037,-0014,0002,092.9931,007.0070,008.6208
275692980,-1961,0294,-0265,0025,-0006,0003,093.4430,007.6605,009.2855
275698541,-1953,0312,-0261,0017,0004,0008,095.8387,007.5988,008.4423
275704174,-1956,0322,-0263,0017,0018,0015,093.2570,007.5056,009.1542
275709913,-1968,0312,-0249,0022,0022,0014,092.8141,007.5644,009.3781
275715686,-1963,0326,-0225,0024,0018,0017,092.1350,007.0557,008.9562
275721394,-1992,0328,-0222,0027,0003,0011,087.7748,006.3585,009.4949
275727089,-1972,0302,-0238,0036,0003,0012,087.8042,006.2582,009.3324
275732807,-1991,0328,-0236,0033,0008,0015,092.4498,006.8726,008.6214
275738486,-2008,0301,-0233,0022,0012,0019,089.0746,006.6422,009.4453
275744191,-2016,0294,-0240,0004,0011,0017,091.6748,006.5295,008.4252
275749884,-2026,0301,-0227,-0006,0007,0018,092.9789,006.7309,008.2870
275755488,-2020,0297,-0217,0002,0012,0018,090.5089,006.2844,008.4675
275761169,-2009,0307,-0197,0028,0021,0014,089.8113,006.0437,008.3542
275766862,-1988,0313,-0180,0047,0020,0003,086.1022,005.4792,008.7218
275772483,-1985,0308,-0229,0053,0012,0002,083.4598,005.0673,008.9678
275778148,-1951,0313,-0207,0042,0002,0000,091.1179,006.6734,008.7963
275783654,-1952,0335,-0215,0030,0002,0006,086.9117,005.9182,009.1368
275789238,-1937,0313,-0276,0005,0015,0008,086.4294,006.2205,009.8015
275794809,-1936,0295,-0268,-0020,0024,0012,095.7227,008.1582,009.1282
275800489,-1932,0294,-0245,-0022,0031,0007,095.8979,007.7585,008.6210
275806187,-1961,0275,-0227,-0019,0027,0006,093.2753,007.0918,008.6552
275811846,-1952,0285,-0195,0003,0006,0003,093.2099,006.4672,007.9017
275817365,-1978,0295,-0213,0022,-0004,0008,087.7377,005.5742,008.3351
275822991,-1980,0322,-0216,0036,-0002,0007,089.7696,006.1312,008.4978
275828613,-1979,0338,-0233,0033,0006,0003,087.3986,006.1412,009.3193
275834223,-1974,0317,-0210,0006,0014,0004,088.4603,006.6687,009.7320
275839835,-2007,0349,-0209,-0008,0016,0003,087.2014,005.9155,009.0522
275845445,-2022,0332,-0193,-0007,0017,0006,084.5808,005.8477,009.9419
275851044,-1985,0331,-0196,0012,0016,0011,084.0428,005.3391,009.2736
275856770,-2013,0331,-0230,0029,0012,0011,084.6148,005.5887,009.4923
275862504,-2012,0312,-0222,0031,0006,0011,089.0865,006.5243,009.3191
275868199,-1993,0301,-0245,0026,0007,0015,089.2809,006.1839,008.7613
275873839,-1967,0313,-0253,0023,0007,0016,093.2994,007.0073,008.5707
275879514,-1947,0306,-0202,0020,-0001,0016,092.6298,007.2602,009.1057
275885147,-1945,0307,-0201,0012,-0004,0011,086.7495,005.7123,008.9161
275890798,-1942,0281,-0226,0012,-0008,0009,087.1103,005.8268,008.9739
275896409,-1932,0286,-0257,0018,0006,0008,093.0640,006.6229,008.1725
275902030,-1944,0302,-0241,0032,0023,0011,095.9051,007.5640,008.4388
275907781,-1961,0313,-0222,0041,0028,0012,092.0084,006.9180,008.8763
275913491,-1980,0325,-0200,0041,0020,0013,088.8327,006.3040,009.0949
275919146,-1991,0321,-0207,0034,0014,0018,085.1333,005.6153,009.3508
275924863,-2014,0326,-0226,0022,0018,0022,086.9371,005.8895,009.1384
275930613,-1993,0318,-0225,0015,0019,0022,088.8185,006.3703,009.2058
275936302,-1998,0318,-0212,0008,0018,0020,089.2144,006.3572,009.0528
275941950,-1971,0305,-0221,-0002,0005,0011,087.4311,005.9326,009.0429
275947573,-1983,0282,-0237,0001,-0008,0001,090.1027,006.3567,008.7631
275953135,-1961,0290,-0204,0005,-0004,0000,094.2789,006.7765,008.0216
275958574,-1977,0276,-0251,0015,0007,0000,088.6582,005.8014,008.4372
275964066,-1961,0286,-0250,0022,0022,0004,096.7919,007.2941,007.8985
275969721,-1972,0308,-0249,0033,0030,0007,094.8035,007.1798,008.3464
275975369,-2007,0310,-0212,0036,0031,0015,092.6106,007.1064,008.9440
275981103,-1981,0317,-0193,0030,0030,0022,087.7824,005.8269,008.7650
275986786,-1991,0306,-0207,0020,0019,0015,085.0367,005.4507,009.1345
275992452,-1984,0321,-0193,0024,0012,0009,088.4096,005.9122,008.6893
275998086,-1973,0320,-0226,0030,0004,0003,084.6535,005.4285,009.2450
276003702,-1961,0302,-0231,0030,-0006,-0006,089.6913,006.5615,009.2014
276009266,-1948,0327,-0214,0026,-0012,-0006,091.4962,006.6358,008.6998
276014950,-1967,0311,-0253,0023,-0011,-0001,086.6964,006.1173,009.6200
276020612,-1944,0329,-0240,0023,0005,0004,093.8153,007.3778,008.8995
276026233,-1960,0340,-0264,0028,0020,0006,089.7026,006.8945,009.6754
276031853,-1961,0334,-0246,0035,0036,0016,092.0061,007.6468,009.8629
276037580,-1976,0309,-0250,0037,0031,0020,090.0830,006.9696,009.6412
276043244,-1965,0305,-0222,0033,0020,0021,093.2160,007.1430,008.7992
276048940,-1978,0294,-0233,0028,0015,0021,089.5146,006.2614,008.8295
276054685,-1970,0303,-0246,0017,0017,0020,092.6837,006.6972,008.4048
276060374,-1964,0294,-0225,0008,0009,0017,092.9808,007.0751,008.7925
276065961,-2003,0276,-0222,0017,0003,0018,091.1263,006.3870,008.4849
276071678,-1974,0307,-0240,0032,-0001,0011,092.8926,006.2420,007.7673
276077368,-1971,0331,-0238,0048,0002,0011,091.7946,006.9262,008.9843
276083034,-1961,0331,-0255,0056,0009,0014,089.3913,006.7702,009.6023
276088684,-1974,0363,-0246,0058,0013,0019,091.7614,007.3738,009.5791
276094438,-1966,0341,-0256,0055,0013,0019,087.5871,006.9316,010.5388
276100221,-1983,0330,-0206,0036,0014,0022,091.2680,007.3642,009.7400
276105965,-1996,0307,-0249,0005,0011,0016,085.1767,005.6455,009.4124
276111668,-1997,0294,-0245,-0020,0014,0012,093.8316,007.1906,008.6651
276117382,-1964,0307,-0240,-0011,0006,0011,093.6504,006.8788,008.3410
276123054,-1988,0283,-0258,0004,-0003,0013,091.6862,006.8734,008.9587
276128663,-1979,0287,-0271,0026,0002,0018,096.6697,007.3609,008.0128
276134335,-1991,0294,-0247,0032,0010,0016,097.2256,007.7580,008.2828
276140051,-2004,0303,-0234,0030,0013,0017,093.4604,006.8978,008.4163
276145782,-2004,0325,-0249,0025,0008,0022,091.3288,006.5419,008.6239
276151457,-1989,0308,-0213,0024,0007,0021,091.3470,007.0360,009.2807
276157133,-1982,0297,-0244,0018,0007,0017,088.2555,005.9176,008.7486
276162820,-1980,0304,-0239,0019,0009,0010,093.8992,007.0670,008.4926
276168469,-1954,0318,-0232,0011,0004,0004,091.8560,006.7639,008.7545
276174110,-1959,0299,-0218,0020,-0002,0007,089.8377,006.6644,009.2994
276179698,-1948,0305,-0270,0032,-0001,0003,090.0591,006.2286,008.6095
276185277,-1960,0304,-0249,0027,0004,0002,095.8568,007.9538,008.9248
276190904,-1986,0313,-0234,0020,0012,0004,092.8747,007.0541,008.8006
276196515,-1977,0331,-0257,0021,0014,0010,090.4845,006.5901,008.9725
276202263,-1949,0348,-0240,0031,0013,0011,091.9075,007.4034,009.5792
276208005,-1940,0338,-0243,0040,0013,0008,088.1251,006.8403,010.1972
276213720,-1980,0340,-0217,0042,0005,0005,089.8504,007.0511,009.8435
276219333,-1955,0331,-0215,0044,-0001,0000,086.1852,006.0609,009.7273
276224857,-1948,0312,-0236,0044,-0004,0000,087.0855,006.1916,009.5929
276230379,-1948,0292,-0225,0040,-0002,-0001,091.3587,006.8651,009.0529
276235926,-1960,0295,-0249,0035,-0003,0002,091.5366,006.4799,008.4793
276241540,-1967,0303,-0245,0035,0001,0005,094.3146,007.2346,008.5656
276247155,-1988,0304,-0252,0038,0004,0013,092.6511,006.9853,008.7798
276252830,-2003,0331,-0227,0047,0012,0020,093.6124,007.1579,008.6860
276258528,-2017,0303,-0234,0051,0015,0031,087.7849,006.2894,009.4697
276264200,-2013,0292,-0217,0054,0022,0033,091.9562,006.5717,008.4571
276269917,-2008,0326,-0213,0052,0016,0035,090.3121,006.0331,008.2382
276275656,-2010,0306,-0234,0050,0003,0024,086.7048,005.9641,009.3468
276281254,-1982,0309,-0252,0041,-0010,0018,091.6477,006.6087,008.5944
276286955,-1963,0283,-0267,0043,-0023,0007,093.1385,007.2150,008.8928
276292633,-1954,0308,-0269,0051,-0026,0002,097.5572,007.7101,008.1054
276298299,-1932,0294,-0277,0054,-0023,-0009,094.5360,007.7323,009.0580
276303978,-1923,0305,-0251,0053,-0017,-0011,097.1968,008.0843,008.6046
276309687,-1921,0318,-0255,0037,-0012,-0010,092.8696,007.2749,009.0351
276315383,-1932,0308,-0257,0033,0004,-0003,092.4547,007.4691,009.4221
276320989,-1960,0312,-0239,0032,0022,0006,093.6748,007.4849,009.0278
276326699,-1964,0312,-0230,0023,0027,0019,090.8828,006.7822,009.0500
276332455,-2018,0312,-0217,0026,0023,0028,090.0795,006.5697,009.0294
276338178,-2009,0298,-0221,0029,0013,0033,088.4478,006.0068,008.7704
276343882,-2001,0292,-0209,0039,0007,0032,090.5415,006.2281,008.4063
276349590,-2007,0273,-0201,0044,0000,0028,089.2117,005.8532,008.2952
276355137,-1988,0261,-0231,0040,-0010,0019,090.1870,005.6394,007.7000
276360811,-1967,0296,-0247,0041,-0017,0011,095.7756,006.6744,007.4501
276366590,-1969,0287,-0228,0035,-0020,0004,093.2210,007.1255,008.7287
276372226,-1947,0300,-0239,0032,-0014,-0009,092.0565,006.4504,008.2309
276377871,-1924,0282,-0243,0029,-0007,-0007,092.2957,006.9552,008.8073
276383578,-1948,0311,-0240,0037,0006,-0009,094.6227,007.1293,008.2955
276389199,-1947,0313,-0254,0045,0021,0000,091.1073,006.9170,009.1463
276394748,-1967,0342,-0229,0050,0025,0000,092.9487,007.3804,009.1257
276400263,-1966,0331,-0251,0054,0025,0002,087.1261,006.4637,009.9307
276405930,-1984,0333,-0197,0040,0016,0010,091.3941,007.2654,009.5073
276411603,-1973,0329,-0222,0028,0004,0012,083.5568,005.3879,009.5302
276417260,-1977,0315,-0196,0020,-0007,0015,088.2907,006.4403,009.4605
276422883,-1979,0283,-0199,0014,-0016,0013,085.3688,005.4787,009.0068
276428633,-1974,0265,-0240,0009,-0023,0011,089.4001,005.6950,008.0144
276434312,-1960,0250,-0238,0012,-0020,0006,096.6573,007.0111,007.5943
276439921,-1973,0290,-0259,0021,-0014,0006,097.3103,006.8389,007.2325
276445594,-1980,0284,-0273,0036,-0008,0008,095.2383,007.4632,008.5098
276451203,-1979,0313,-0244,0052,-0012,0007,097.7523,007.7940,008.1203
276456872,-1967,0320,-0269,0055,-0004,0007,090.9282,006.8296,009.0911
276462490,-1974,0334,-0233,0048,-0001,0012,094.0430,007.7827,009.2568
276468144,-1974,0342,-0251,0038,-0005,0011,087.9939,006.4909,009.6440
276473804,-1972,0332,-0226,0032,-0008,0004,090.2503,007.2097,009.8484
276479391,-1960,0332,-0247,0031,-0013,0006,087.7559,006.3526,009.5225
276485064,-1949,0300,-0271,0022,-0018,0002,090.7051,007.1650,009.6224
276490700,-1970,0295,-0242,0012,-0020,0005,096.2593,007.8802,008.6521
276496324,-1963,0272,-0241,0001,-0022,0003,092.5984,006.7955,008.4981
276501949,-1967,0275,-0237,-0006,-0019,0002,095.4773,006.9318,007.8145
276507558,-1963,0256,-0281,-0007,-0017,0002,094.2668,006.7721,007.9736
276513189,-1954,0266,-0279,-0001,-0005,0005,102.0510,008.2334,007.3589
276518792,-1972,0284,-0259,0005,0013,0008,099.7294,008.0287,007.7937
276524411,-2002,0276,-0255,0013,0019,0014,095.5738,007.3312,008.2440
276530159,-2026,0324,-0259,0012,0018,0017,096.4806,007.1712,007.8023
276535900,-2033,0314,-0226,0009,0015,0020,091.9328,007.1931,009.2317
276541533,-2048,0331,-0241,0015,0014,0018,089.2978,006.1906,008.7462
276547257,-2034,0338,-0196,0037,0019,0019,089.8806,006.6656,009.2231
276552989,-2036,0357,-0226,0045,0026,0014,083.3930,005.3084,009.4563
276558696,-2015,0357,-0176,0034,0020,0009,086.4409,006.3285,009.9912
276564336,-2029,0352,-0181,0025,0005,-0003,079.5992,004.7773,010.0460
276569989,-2014,0340,-0180,0027,-0002,-0013,081.3259,005.0359,009.8137
276575670,-1995,0325,-0195,0031,0001,-0013,081.9362,005.0286,009.5477
276581300,-1969,0331,-0203,0038,0006,-0015,085.2385,005.5570,009.2097
276586933,-1945,0339,-0210,0046,0017,-0010,085.5089,005.8353,009.5745
276592641,-1940,0317,-0206,0048,0016,-0008,085.7563,006.0982,009.9151
276598314,-1924,0331,-0207,0041,0014,-0006,087.0641,005.9695,009.2137
276603948,-1960,0323,-0194,0047,0019,0005,085.8974,006.0581,009.7947
276609615,-1952,0327,-0209,0064,0020,0016,084.8240,005.5199,009.3040
276615328,-1949,0316,-0218,0074,0023,0021,086.7145,006.0961,009.5379
276621076,-1953,0308,-0203,0073,0026,0027,088.6992,006.3305,009.1722
276626800,-1959,0304,-0187,0054,0029,0035,087.0857,005.8094,008.9445
276632531,-1969,0293,-0184,0032,0022,0035,085.2777,005.3342,008.8136
276638293,-1977,0278,-0197,0020,0013,0029,086.1264,005.2689,008.4184
276643986,-1977,0277,-0232,0016,0008,0024,089.5809,005.6785,007.9535
276649661,-1973,0268,-0204,0022,0006,0017,094.2437,006.7472,007.9808
276655348,-1956,0258,-0207,0031,0003,0009,090.6480,005.7225,007.7011
276660940,-1959,0282,-0220,0038,0004,0002,092.7314,006.0074,007.4923
276666543,-1949,0292,-0212,0036,0002,0001,091.6839,006.3718,008.2627
276672187,-1933,0284,-0216,0032,0008,0004,089.6519,006.1116,008.5427
276677820,-1943,0296,-0188,0021,0016,0009,091.1949,006.3196,008.3444
276683508,-1948,0306,-0206,0004,0025,0012,085.8910,005.3838,008.6923
276689134,-1968,0306,-0218,-0005,0034,0011,088.0710,006.0233,008.9513
276694807,-1972,0308,-0205,-0009,0038,0009,089.5790,006.2799,008.8234
276700399,-1976,0306,-0184,-0001,0033,0010,087.3987,005.8192,008.8835
276706024,-1976,0310,-0220,0010,0019,0002,084.7537,005.1885,008.7897
276711686,-2008,0299,-0181,0019,0007,-0001,089.8589,006.4096,008.9275
276717310,-1988,0310,-0199,0019,-0005,-0001,084.6785,004.9547,008.4193
276722941,-1993,0315,-0201,0011,-0016,-0006,086.8946,005.7133,008.9081
276728599,-2000,0321,-0218,0010,-0022,0001,086.4791,005.6677,008.9859
276734181,-1980,0328,-0196,0013,-0014,0000,088.3170,006.1734,009.1266
276739752,-1957,0331,-0241,0014,-0006,0001,084.5612,005.5038,009.4311
276745350,-1977,0342,-0194,0017,0004,0005,090.6550,007.0891,009.6186
276750949,-1979,0355,-0201,0021,0007,0007,082.8844,005.3476,009.8337
276756567,-1992,0322,-0241,0024,0011,0012,083.7396,005.7453,010.2082
276762340,-2017,0308,-0229,0018,0017,0014,091.7992,006.9511,009.0455
276768073,-1991,0301,-0250,0012,0014,0016,090.5038,006.3381,008.6436
276773774,-1994,0305,-0247,0005,0013,0013,094.0550,007.1645,008.5924
276779457,-1982,0301,-0242,0017,0000,0014,092.8349,006.9499,008.7098
276785007,-1984,0279,-0225,0027,-0005,0013,092.7508,006.8659,008.6281
276790680,-1971,0298,-0255,0040,-0010,0009,092.8454,006.3394,007.9265
276796312,-1953,0297,-0222,0036,-0008,0009,094.6549,007.3976,008.6799
276801987,-1965,0301,-0226,0033,0003,0013,090.3006,006.2944,008.6433
276807644,-1969,0308,-0214,0026,0009,0012,090.9707,006.5057,008.7174
276813306,-1965,0299,-0255,0025,0014,0010,088.5536,006.0765,008.9120
276818984,-1964,0295,-0258,0020,0011,0012,095.1422,007.4733,008.6168
276824707,-1965,0313,-0250,0019,0008,0013,095.0767,007.3852,008.5322
276830446,-1966,0318,-0249,0021,0010,0015,092.2196,007.1232,009.1274
276836166,-1974,0318,-0234,0029,0004,0020,091.9904,007.1198,009.1994
276841819,-1979,0329,-0222,0025,-0003,0015,090.1212,006.6108,009.1466
276847462,-1996,0311,-0227,0020,0001,0012,087.8036,006.2707,009.4735
276853081,-1989,0334,-0256,0018,0002,0014,090.3797,006.4175,008.7935
276858765,-1994,0332,-0233,0012,0010,0012,091.5847,007.3275,009.6234
276864447,-2003,0331,-0232,0013,0009,0014,088.8131,006.4835,009.4351
276870110,-2000,0317,-0226,0012,0006,0014,089.1084,006.5156,009.3793
276875699,-2013,0315,-0228,0015,0010,0016,089.5856,006.3487,008.9732
276881424,-2004,0304,-0265,0020,0015,0019,090.0004,006.3857,008.8875
276887087,-2007,0297,-0231,0029,0014,0023,095.5607,007.5606,008.6015
276892811,-1991,0318,-0247,0034,0013,0018,091.4255,006.3682,008.3984
276898572,-1994,0335,-0249,0040,0011,0015,091.9029,007.0650,009.1681
276904255,-1998,0320,-0246,0051,0005,0012,090.5068,007.0100,009.5783
276909914,-1983,0333,-0266,0056,0002,0011,091.6619,006.9169,009.0458
276915597,-1965,0323,-0249,0053,0005,0012,092.6871,007.6069,009.5913
276921263,-1916,0340,-0215,0049,0006,0013,091.4553,007.0611,009.3013
276926947,-1923,0346,-0247,0047,0004,0016,086.0415,006.2488,010.1138
276932700,-1937,0325,-0217,0044,0001,0019,089.8406,007.2941,010.2107
276938407,-1930,0319,-0234,0036,0006,0022,087.5319,006.2039,009.4625
276944072,-1936,0294,-0252,0031,0014,0025,090.4655,006.8701,009.3837
276949794,-1964,0294,-0257,0028,0014,0029,094.9026,007.3759,008.5668
276955512,-1960,0287,-0255,0037,0019,0028,095.0577,007.3727,008.5118
276961260,-1981,0282,-0217,0037,0022,0027,095.5492,007.3302,008.3098
276967002,-1994,0292,-0232,0029,0026,0024,090.9032,006.0340,008.0780
276972722,-2006,0289,-0220,0020,0025,0025,092.5641,006.6365,008.3693
276978397,-1994,0280,-0194,0014,0020,0023,091.0552,006.1446,008.1839
276984077,-2006,0272,-0207,0021,0015,0020,088.3844,005.4227,007.9734
276989752,-1990,0287,-0217,0030,0017,0022,091.5364,005.8842,007.6965
276995476,-2000,0284,-0251,0031,0021,0019,090.9848,006.1965,008.2775
277001152,-1993,0294,-0232,0030,0023,0018,095.8359,007.1860,008.0613
277006852,-1980,0307,-0237,0034,0023,0021,091.7509,006.4940,008.4354
277012576,-1982,0294,-0244,0039,0026,0020,091.5874,006.7821,008.8678
277018283,-1972,0305,-0232,0039,0021,0017,093.8473,006.9638,008.3829
277024027,-1969,0332,-0243,0037,0022,0015,090.8124,006.5841,008.8516
277029787,-1959,0326,-0225,0028,0014,0010,090.0515,006.9877,009.6770
277035444,-1936,0326,-0232,0023,0008,0006,088.3892,006.3913,009.4168
277041020,-1954,0333,-0225,0025,0002,0008,089.4639,006.7586,009.5678
277046563,-1943,0326,-0246,0032,0003,0010,087.8829,006.4406,009.6806
277052161,-1952,0303,-0231,0035,0007,0010,091.2562,007.1770,009.5082
277057794,-1943,0310,-0256,0036,0008,0019,091.2280,006.6117,008.7542
277063489,-1932,0304,-0216,0031,0017,0023,093.6559,007.5035,009.1049
277069240,-1967,0305,-0214,0029,0020,0030,088.9088,006.1915,008.9344
277074935,-1998,0313,-0233,0025,0023,0031,089.0242,006.1287,008.8050
277080649,-1984,0296,-0219,0019,0027,0032,090.7854,006.6279,008.9238
277086397,-2019,0304,-0231,0016,0025,0035,090.3795,006.1765,008.4352
277092103,-2022,0294,-0219,0022,0015,0032,091.2265,006.4820,008.5846
277097829,-2016,0294,-0224,0028,0010,0026,090.5347,006.0727,008.2438
277103534,-1992,0292,-0237,0032,0001,0022,091.2828,006.2888,008.3066
277109221,-1983,0295,-0232,0032,0001,0018,093.1399,006.7578,008.3453
277114896,-1976,0311,-0253,0026,0001,0012,091.9455,006.5729,008.4758
277120527,-1972,0294,-0229,0018,0001,0006,093.1307,007.2757,008.9985
277126134,-1957,0291,-0226,0007,0006,0005,091.6666,006.4619,008.4186
277131689,-1966,0284,-0249,0012,0013,0008,091.7717,006.5172,008.4605
277137357,-1970,0303,-0254,0023,0032,0005,095.5870,007.2320,008.1850
277143011,-1961,0290,-0267,0034,0036,0004,093.6978,007.2718,008.8117
277148708,-1980,0303,-0231,0033,0026,0009,096.8772,007.7281,008.3549
277154393,-1978,0308,-0242,0026,0010,0009,090.4986,006.4292,008.7427
277160033,-1993,0306,-0245,0008,0011,0011,092.2409,006.9429,008.8639
277165741,-1981,0316,-0225,0001,0017,0012,092.6320,006.9221,008.7134
277171405,-1990,0331,-0234,-0004,0026,0015,089.0460,006.3352,009.1083
277177071,-1991,0297,-0220,0003,0021,0019,089.2729,006.6470,009.4867
277182763,-2000,0333,-0202,0017,0007,0014,090.6567,006.1812,008.3656
277188386,-1979,0328,-0233,0031,0003,0014,084.7691,005.6305,009.5677
277194039,-1983,0318,-0243,0048,0009,0020,089.9088,006.7419,009.3938
277199698,-1965,0332,-0204,0052,0016,0021,091.5036,006.9164,009.0794
277205458,-1969,0319,-0200,0039,0018,0018,084.7349,005.6837,009.6679
277211168,-1970,0316,-0200,0022,0012,0013,086.3354,005.7271,009.1390
277216876,-1970,0308,-0237,0012,0010,0014,086.3865,005.7180,009.1106
277222573,-1973,0294,-0236,0011,0013,0015,092.2236,006.9185,008.8571
277228302,-1969,0307,-0239,0020,0012,0019,092.7732,006.7186,008.4252
277234016,-1958,0298,-0242,0030,0011,0024,091.7358,006.8514,008.9279
277239711,-1969,0306,-0234,0030,0012,0028,093.1766,006.9772,008.6241
277245406,-1972,0308,-0256,0029,0017,0034,091.1159,006.6577,008.8705
277251133,-1985,0321,-0224,0027,0017,0037,093.9764,007.3980,008.8879
277256879,-1965,0332,-0239,0017,0014,0039,088.1921,006.2130,009.2370
277262608,-1993,0334,-0239,0021,0012,0034,089.9394,006.9245,009.6501
277268336,-1979,0310,-0219,0020,0009,0027,089.5317,006.7169,009.5029
277273990,-1992,0313,-0224,0019,0002,0022,089.1974,006.1739,008.8354
277279657,-1963,0302,-0220,0010,-0002,0019,089.6259,006.3475,008.9441
277285321,-1984,0305,-0242,0011,-0002,0016,090.1252,006.3068,008.7226
277290974,-1970,0301,-0277,0013,-0003,0024,092.6392,006.9313,008.7468
277296627,-1988,0314,-0239,0013,0005,0027,096.9601,008.0296,008.6860
277302305,-1997,0317,-0263,0018,0007,0027,090.5501,006.6178,009.0159
277307978,-1971,0339,-0266,0029,0012,0028,093.9554,007.4970,009.0263
277313706,-1985,0332,-0249,0042,0014,0025,091.8556,007.5846,009.8647
277319443,-1958,0339,-0270,0048,0013,0018,090.7391,006.9823,009.4491
277325267,-1963,0354,-0280,0049,0012,0019,092.7609,007.8598,009.8861
277331000,-1974,0345,-0261,0035,0002,0019,092.2138,008.0014,010.2720
277336736,-1970,0336,-0240,0028,-0001,0021,090.9001,007.3347,009.8698
277342396,-1957,0331,-0258,0020,0000,0022,089.3469,006.7790,009.6599
277347932,-1966,0309,-0254,0015,0011,0023,092.1522,007.4686,009.5983
277353648,-1966,0255,-0258,0010,0018,0026,093.5218,007.2435,008.8475
277359387,-1970,0268,-0245,0011,0015,0025,100.0373,007.4349,007.1883
277365100,-1983,0274,-0250,0020,0016,0027,095.7686,006.9643,007.8320
277370801,-1994,0282,-0287,0031,0007,0019,096.2869,007.1327,007.8738
277376508,-1997,0300,-0256,0048,0017,0013,099.6546,008.2318,008.0704
277382244,-1982,0321,-0264,0053,0019,0006,093.6856,007.0996,008.5987
277387925,-1970,0336,-0261,0047,0014,0003,093.2852,007.5372,009.2698
277393597,-1976,0362,-0247,0045,0006,0003,091.5535,007.4232,009.7264
277399236,-1978,0374,-0247,0037,0013,0004,087.9256,006.9587,010.4532
277405004,-1967,0348,-0228,0029,0020,0013,087.3858,006.9992,010.7426
277410750,-1977,0328,-0256,0014,0027,0020,087.2362,006.4444,009.9381
277416453,-1966,0292,-0218,-0001,0030,0025,092.5024,007.3886,009.3597
277422086,-1961,0273,-0209,-0005,0022,0028,090.4444,006.1216,008.3466
277427763,-1974,0296,-0243,0002,0008,0024,091.4860,006.0074,007.8810
277433353,-1971,0272,-0241,0010,-0002,0021,093.4735,007.0388,008.6072
277439003,-1942,0290,-0288,0022,-0001,0011,095.6822,006.8801,007.7631
277444660,-1956,0280,-0263,0030,0003,0007,098.9118,008.5005,008.5724
277450223,-1977,0296,-0265,0029,0013,0000,096.8746,007.4882,008.1004
277455777,-1966,0312,-0244,0029,0019,-0001,095.6136,007.5566,008.5526
277461461,-2006,0306,-0218,0017,0026,-0001,091.5102,006.9129,009.0749
277467130,-1982,0306,-0261,0018,0025,0000,089.2510,006.0490,008.6260
277472658,-1978,0325,-0209,0024,0025,0000,094.8455,007.5479,008.7867
277478205,-1966,0314,-0219,0033,0024,0004,085.9864,005.7960,009.3811
277483859,-1973,0311,-0203,0036,0012,0005,089.2904,006.3358,009.0315
277489514,-1943,0320,-0237,0036,-0003,0007,086.8810,005.7272,008.9459
277495114,-1951,0306,-0290,0035,-0010,0009,090.7916,006.9598,009.3898
277500753,-1940,0330,-0276,0027,-0011,0012,098.0238,008.5133,008.8544
277506490,-1954,0309,-0262,0025,0001,0011,093.2725,007.9084,009.7544
277512191,-1953,0307,-0268,0022,0009,0010,094.3053,007.4914,008.8866
277517871,-1964,0305,-0255,0028,0013,0008,095.0784,007.7456,008.9377
277523531,-1974,0310,-0267,0041,0017,0007,093.6234,007.2539,008.8104
277529200,-1986,0312,-0259,0046,0015,0005,094.7279,007.6540,008.9355
277534838,-1971,0313,-0242,0057,0016,0008,093.4419,007.3056,008.9243
277540536,-1984,0331,-0263,0059,0013,0005,091.3611,006.8600,009.0322
277546209,-1956,0341,-0246,0057,0002,0005,092.4338,007.5145,009.5205
277551817,-1956,0342,-0213,0051,-0001,0007,089.3698,007.0005,009.9308
277557397,-1970,0320,-0251,0035,-0008,0007,085.4734,006.0158,009.9138
277562967,-1964,0335,-0247,0021,-0010,0009,092.6346,007.2796,009.1509
277568649,-1977,0323,-0279,0015,-0005,0012,089.9692,007.0270,009.7507
277574288,-1969,0300,-0279,0012,-0006,0012,095.1265,008.0213,009.2248
277579921,-2000,0313,-0252,0019,0002,0014,096.8528,007.9600,008.5976
277585554,-1978,0306,-0244,0033,0005,0011,092.2186,007.0016,008.9241
277591228,-1979,0315,-0240,0042,0008,0010,092.4173,006.9392,008.7761
277596891,-1986,0313,-0247,0039,0012,0004,091.0065,006.8126,009.0730
277602555,-1997,0317,-0258,0037,0006,-0003,092.2392,007.0206,008.9360
277608161,-1976,0323,-0286,0033,0003,-0005,093.0180,007.2892,009.0210
277613750,-1958,0294,-0257,0029,-0004,-0007,095.4960,008.2100,009.3042
277619365,-1966,0341,-0263,0025,-0018,-0002,094.7993,007.2882,008.4480
277625027,-1933,0331,-0254,0022,-0028,0002,091.0163,007.5171,010.0176
277630768,-1954,0309,-0254,0015,-0022,0006,091.3023,007.3464,009.6822
277636415,-1957,0310,-0266,0009,-0010,0012,093.3952,007.2990,008.9049
277642050,-1957,0317,-0250,0008,-0002,0020,094.4740,007.6795,009.0173
277647598,-1976,0312,-0232,0016,0006,0024,091.7784,007.1280,009.2255
277653284,-1980,0313,-0241,0024,0006,0019,090.2745,006.5433,008.9433
277658925,-1982,0296,-0251,0029,0005,0013,091.5320,006.8855,008.9878
277664630,-1970,0298,-0231,0024,0016,0002,094.4144,007.1689,008.4264
277670343,-2009,0302,-0233,0018,0017,-0002,091.2154,006.5337,008.6209
277676025,-2005,0331,-0239,0018,0012,-0003,091.5109,006.5389,008.5353
277681696,-2000,0330,-0234,0022,-0001,-0005,089.4947,006.7167,009.4598
277687270,-2006,0337,-0259,0031,-0011,0005,089.1494,006.5604,009.3580
277692930,-1983,0347,-0255,0031,-0006,0011,091.5570,007.3180,009.5543
277698617,-1989,0352,-0262,0033,0008,0023,089.9707,007.2017,009.9746
277704290,-1994,0366,-0213,0036,0015,0031,090.5378,007.4096,010.0500
277710121,-1979,0338,-0209,0034,0015,0029,083.2301,005.7967,010.4567
277715881,-1971,0325,-0245,0024,0009,0023,086.0294,005.9580,009.5907
277721523,-1959,0304,-0225,0007,0002,0019,091.4192,007.1100,009.3389
277727148,-1957,0285,-0240,-0002,-0008,0011,090.2231,006.3894,008.7627
277732770,-1936,0275,-0232,-0003,-0017,0004,094.3029,006.9611,008.2307
277738356,-1939,0255,-0264,-0002,-0021,0008,093.9115,006.7352,008.0743
277743985,-1941,0265,-0246,0015,-0017,0005,100.1641,007.7503,007.4414
277749666,-1964,0283,-0252,0027,-0006,0005,096.3007,007.0917,007.8021
277755274,-1963,0331,-0250,0042,0005,0011,095.3672,007.2497,008.2470
277760947,-1985,0343,-0264,0048,0013,0013,090.3880,007.1430,009.7494
277766686,-1990,0339,-0263,0055,0018,0014,091.5721,007.5085,009.8101
277772399,-1989,0360,-0239,0042,0022,0016,091.6541,007.4133,009.6513
277778159,-1981,0347,-0229,0025,0011,0013,086.9572,006.6505,010.3394
277783955,-1964,0332,-0233,0012,0002,0020,087.3871,006.4646,009.8814
277789583,-1964,0330,-0257,0000,-0016,0018,089.1138,006.6804,009.5630
277795161,-1955,0282,-0259,-0005,-0031,0011,091.9979,007.4063,009.5360
277800840,-1951,0261,-0262,-0010,-0035,0010,096.8347,007.4529,008.0514
277806514,-1936,0271,-0270,-0011,-0036,0008,099.0001,007.5710,007.5720
277812190,-1949,0293,-0280,0002,-0027,0007,098.5485,007.8702,008.0038
277817826,-1934,0308,-0266,0021,-0008,0006,097.3179,008.0982,008.6092
277823458,-1942,0294,-0263,0040,0002,0005,094.3828,007.6964,009.0834
277829075,-1971,0311,-0253,0027,0013,0007,095.7108,007.6166,008.5634
277834747,-1990,0331,-0278,0015,0018,0012,092.6069,007.1736,009.0188
277840444,-1989,0316,-0268,-0003,0014,0013,093.9690,007.9225,009.4972
277846120,-1988,0310,-0261,0000,0008,0015,094.1110,007.5334,008.9763
277851603,-1993,0301,-0216,0006,0003,0016,093.8730,007.3712,008.8564
277857219,-2000,0301,-0216,0018,-0004,0020,089.0283,005.9759,008.5640
277862811,-2017,0275,-0238,0019,-0005,0017,089.5815,006.0968,008.5602
277868435,-2016,0313,-0216,0020,0005,0009,095.1860,006.7154,007.6873
277874059,-2039,0332,-0220,0039,0009,0009,087.9232,005.9747,008.9326
277879661,-2017,0339,-0244,0053,0008,0007,087.4357,006.0826,009.2684
277885256,-2010,0361,-0242,0060,0007,0003,089.8173,006.8613,009.5590
277890791,-2019,0350,-0246,0062,0008,0001,087.6148,006.7471,010.2232
277896409,-2025,0365,-0236,0056,0010,-0005,089.1241,006.8511,009.7939
277902054,-1988,0355,-0231,0051,0018,-0011,086.6510,006.5161,010.2443
277907853,-1971,0339,-0249,0036,0006,-0009,087.0362,006.5209,010.0990
277913529,-1982,0332,-0237,0020,0007,-0003,090.5590,007.1633,009.7103
277919121,-1965,0313,-0228,0016,0007,0004,089.2777,006.6741,009.4857
277924739,-1953,0296,-0247,0017,0018,0015,090.0372,006.5178,008.9997
277930463,-1942,0282,-0250,0027,0024,0020,094.1271,007.2068,008.5720
277936131,-1954,0275,-0191,0043,0024,0024,095.4535,007.2668,008.2363
277941794,-1961,0280,-0233,0053,0020,0026,087.8866,005.3583,007.9935
277947500,-1972,0297,-0240,0055,0011,0023,094.2277,006.8885,008.1469
277953234,-1982,0313,-0212,0054,0006,0013,092.5102,006.8536,008.6235
277958929,-1955,0311,-0209,0053,0009,0002,087.3857,005.9223,009.0137
277964524,-1980,0310,-0220,0051,0011,0005,087.8067,006.0347,009.0376
277970179,-1943,0323,-0214,0049,0009,0004,089.3655,006.2885,008.8771
277975782,-1932,0333,-0226,0041,0005,-0003,087.2168,006.1869,009.4828
277981397,-1941,0314,-0242,0033,-0003,0002,088.0588,006.5977,009.7990
277987020,-1930,0319,-0244,0020,0003,0007,091.7057,007.0470,009.1314
277992614,-1931,0313,-0255,0012,0016,0016,091.1617,007.1110,009.4058
277998358,-1949,0294,-0244,0007,0022,0019,093.1086,007.4578,009.1905
278004057,-1942,0291,-0229,0005,0025,0027,093.4780,007.0110,008.5159
278009724,-1967,0277,-0199,0003,0020,0035,091.8190,006.6156,008.5327
278015371,-1969,0274,-0200,0004,0012,0046,089.1696,005.6085,007.9681
278021004,-1988,0292,-0195,0011,0004,0048,089.9902,005.7537,007.9310
278026657,-1994,0296,-0221,0018,-0008,0042,087.2526,005.5053,008.4190
278032314,-2012,0294,-0214,0021,-0014,0031,090.8770,006.3296,008.4539
278038065,-1998,0326,-0215,0031,-0017,0020,089.7058,005.9533,008.2989
278043751,-1997,0340,-0232,0034,-0019,0011,086.9759,006.0593,009.3815
278049489,-1986,0380,-0224,0030,-0020,0008,088.2747,006.5767,009.6958
278055113,-1998,0361,-0215,0040,-0012,-0002,084.0676,006.2811,010.9488
278060791,-1988,0386,-0244,0032,0001,-0007,084.8106,006.0113,010.1578
278066437,-1981,0386,-0265,0026,0002,-0006,086.3716,006.9572,011.0735
278072128,-1960,0346,-0232,0023,0001,-0013,088.5922,007.5334,011.0107
278077832,-1971,0313,-0218,0028,-0001,-0012,087.6264,006.5223,009.8697
278083485,-1947,0315,-0238,0025,0001,-0010,088.9050,006.1901,008.9109
278089077,-1954,0305,-0219,0021,0001,0001,091.1104,006.9400,009.2135
278094659,-1977,0279,-0225,0012,0007,0015,089.3908,006.2521,008.8403
278100292,-1957,0284,-0219,0018,0006,0025,093.1138,006.4438,007.9415
278105971,-1943,0274,-0261,0034,0000,0027,091.2645,006.2963,008.2999
278111549,-1964,0272,-0234,0047,-0003,0029,097.7913,007.6754,008.0091
278117218,-1967,0281,-0214,0050,-0001,0027,093.9956,006.6048,007.8742
278122870,-1989,0303,-0232,0038,0006,0020,090.7182,006.0830,008.1651
278128513,-2006,0309,-0215,0020,0024,0010,091.3318,006.6356,008.7191
278134175,-1995,0322,-0222,0020,0025,0010,088.4237,005.9843,008.7603
278139834,-2010,0339,-0205,0024,0026,0009,088.4861,006.3029,009.2144
278145467,-2002,0355,-0230,0033,0022,0007,084.7966,005.6884,009.6060
278151126,-2021,0358,-0230,0033,0015,0011,087.0641,006.5337,010.1033
278156867,-2003,0339,-0227,0024,0010,0012,086.5947,006.3737,010.0390
278162604,-2002,0311,-0236,0016,0006,0006,087.8538,006.3688,009.5523
278168202,-1977,0323,-0241,0015,0003,0008,091.3552,006.6620,008.7603
278173776,-1969,0315,-0236,0027,0000,-0001,090.5168,006.8725,009.3292
278179267,-1954,0322,-0259,0036,-0006,-0007,090.7212,006.7280,009.0590
278184871,-1964,0318,-0256,0044,-0009,-0013,092.8489,007.5260,009.3824
278190585,-1969,0316,-0271,0039,-0005,-0008,092.6206,007.2950,009.1629
278196207,-1927,0329,-0225,0037,0001,-0005,094.5957,007.7836,009.1047
278201813,-1918,0332,-0218,0021,0012,-0002,087.8441,006.4804,009.7224
278207485,-1920,0326,-0268,0021,0019,0000,087.1947,006.3826,009.8223
278213055,-1953,0349,-0255,0024,0021,0008,093.5790,007.9228,009.6239
278218727,-1969,0348,-0232,0031,0025,0022,089.5590,007.2449,010.2039
278224466,-1978,0353,-0257,0034,0025,0031,087.3391,006.5332,010.0053
278230210,-1996,0336,-0232,0033,0021,0033,090.2621,007.3917,010.1424
278236014,-1996,0331,-0250,0028,0018,0032,088.2664,006.4226,009.4849
278241739,-2016,0331,-0258,0031,0017,0024,091.2383,007.1186,009.4118
278247497,-1997,0306,-0246,0033,0013,0013,091.8408,007.2032,009.3139
278253244,-1988,0307,-0219,0039,0000,0007,092.7102,006.9013,008.6332
278258734,-1951,0315,-0264,0041,-0009,-0006,089.0751,006.1447,008.7831
278264337,-1966,0314,-0250,0043,-0010,-0005,094.2182,007.7660,009.2088
278269965,-1956,0332,-0247,0044,-0008,-0004,092.0806,007.0735,009.0510
278275583,-1948,0317,-0254,0037,-0002,-0001,090.2844,007.0906,009.7000
278281217,-1958,0315,-0229,0025,0006,0003,092.7365,007.3534,009.1894
278286812,-1946,0302,-0246,0016,0023,0009,089.5403,006.5013,009.1331
278292482,-1956,0324,-0236,0019,0036,0016,093.3469,007.1923,008.7895
278298241,-1974,0318,-0238,0023,0038,0021,089.4560,006.7344,009.4998
278303950,-2013,0307,-0259,0027,0027,0025,090.8203,006.7969,009.1102
278309667,-1996,0280,-0239,0020,0019,0021,094.2734,007.2973,008.6261
278315415,-2012,0289,-0244,0003,0020,0016,094.2521,006.6912,007.9056
278321055,-1994,0292,-0238,0006,0014,0014,093.9204,006.8562,008.2027
278326691,-1985,0320,-0249,0020,0009,0011,092.8713,006.7163,008.3450
278332375,-1991,0319,-0227,0026,0004,0013,091.5601,007.0952,009.2599
278338059,-1979,0315,-0229,0031,0003,0011,089.0089,006.3367,009.0834
278343727,-1970,0317,-0221,0029,0013,0011,089.9828,006.5383,009.0385
278349434,-1942,0335,-0238,0032,0013,0014,088.5936,006.2868,009.1558
278355182,-1957,0335,-0239,0032,0012,0007,089.3465,006.9588,009.8658
278360880,-1960,0333,-0258,0034,0004,0005,089.3744,006.8439,009.6895
278366468,-1944,0324,-0277,0034,0006,0006,091.8368,007.4521,009.6341
278372081,-1964,0330,-0237,0038,0010,0008,094.5417,008.0552,009.4416
278377752,-1963,0320,-0269,0037,0017,0010,088.8623,006.6228,009.5492
278383465,-1961,0330,-0244,0047,0018,0010,094.4855,007.8538,009.2158
278389190,-1971,0317,-0250,0050,0018,0016,089.6967,006.8732,009.6005
278394878,-1980,0319,-0263,0054,0012,0018,092.3408,007.1698,009.0774
278400603,-1982,0318,-0220,0043,0008,0018,093.3467,007.5062,009.1637
278406290,-1966,0309,-0233,0043,0000,0013,087.8354,006.0930,009.1088
278411864,-1954,0296,-0230,0045,-0002,0008,091.1075,006.7356,008.9096
278417427,-1949,0315,-0232,0049,-0001,0011,091.6317,006.6212,008.5844
278423124,-1974,0325,-0268,0050,0001,0012,089.9566,006.7048,009.2517
278428732,-1977,0302,-0278,0049,0013,0012,093.5588,007.7331,009.3593
278434447,-1996,0288,-0280,0044,0030,0014,096.6371,007.9410,008.5972
278440161,-1990,0293,-0261,0036,0041,0015,097.9441,007.9079,008.1647
278445886,-1993,0277,-0257,0038,0039,0012,095.0004,007.3347,008.4023
278451614,-2009,0297,-0216,0049,0023,0007,096.6469,007.2727,007.8471
278457307,-1998,0292,-0229,0065,0009,0003,088.9039,005.9334,008.4672
278462898,-1973,0317,-0259,0069,0002,0002,092.0081,006.5186,008.2934
278468488,-1960,0335,-0278,0067,0001,-0001,092.9246,007.4781,009.2159
278474094,-1963,0361,-0265,0065,0002,0001,093.2855,008.0111,009.7507
278479676,-1952,0338,-0256,0058,-0002,0001,089.5370,007.5065,010.4880
278485334,-1951,0352,-0254,0048,-0004,0001,090.8834,007.3363,009.7355
278490945,-1928,0335,-0264,0038,0004,0003,089.2601,007.2902,010.2830
278496605,-1940,0325,-0234,0028,0014,0000,092.0445,007.7150,009.8144
278502137,-1935,0332,-0236,0025,0020,0006,089.1802,006.7163,009.4863
278507739,-1957,0327,-0233,0024,0023,0007,089.0419,006.8660,009.7550
278513411,-1988,0287,-0220,0035,0018,0010,089.1200,006.6745,009.4501
278519087,-1996,0289,-0256,0045,0015,0014,091.3302,006.1984,008.0687
278524824,-1996,0285,-0246,0052,0015,0017,095.5002,007.3683,008.2614
278530569,-2018,0303,-0261,0059,0022,0016,094.1666,006.9046,008.1086
278536312,-2010,0319,-0264,0061,0026,0018,094.2625,007.3368,008.5897
278542055,-2010,0315,-0259,0058,0019,0013,092.9924,007.3982,009.0675
278547817,-1995,0315,-0268,0046,0012,0005,092.9198,007.2345,008.8835
278553479,-1968,0295,-0268,0038,0003,-0003,093.9603,007.5878,008.9759
278559079,-1935,0297,-0252,0040,-0006,-0007,095.8698,007.6692,008.4652
278564660,-1921,0314,-0231,0049,-0010,-0011,093.5971,007.2997,008.7348
278570402,-1901,0298,-0254,0048,-0004,-0009,089.5449,006.7159,009.3181
278576018,-1915,0300,-0243,0053,0002,-0002,093.9739,007.5347,008.8914
278581603,-1911,0331,-0263,0053,0021,0001,092.4040,007.1313,008.8984
278587268,-1941,0341,-0247,0044,0031,0009,091.9015,007.7659,009.8856
278592998,-1957,0337,-0261,0024,0034,0016,089.1196,007.0729,009.9756
278598712,-1986,0323,-0222,0020,0025,0014,091.5142,007.5467,009.7429
278604422,-1998,0300,-0222,0017,0014,0016,087.5381,006.1385,009.1777
278610156,-2003,0310,-0234,0026,0011,0010,090.3177,006.2824,008.4579
278615894,-1997,0313,-0245,0034,0011,0011,090.5568,006.6195,008.8395
278621652,-2004,0303,-0219,0039,0001,0007,091.6274,006.9411,008.9139
278627265,-1998,0288,-0227,0033,-0007,0007,089.0916,006.0807,008.5647
278632874,-1988,0275,-0243,0026,-0003,0011,091.9514,006.4407,008.1642
278638544,-1969,0290,-0256,0020,0009,0010,095.2197,006.9545,007.8398
278644167,-1969,0284,-0229,0017,0026,0018,094.8083,007.3766,008.4478
278649935,-1983,0290,-0240,0018,0029,0021,091.9438,006.4476,008.1757
278655679,-1991,0312,-0247,0023,0025,0024,093.1993,006.8828,008.3452
278661400,-1995,0295,-0280,0032,0021,0019,091.6627,007.0005,008.9806
278667171,-1979,0300,-0262,0047,0026,0012,097.5599,008.0277,008.3340
278672854,-1971,0309,-0258,0043,0023,-0002,094.1618,007.3872,008.6494
278678522,-1958,0339,-0232,0046,0012,-0016,093.1789,007.3631,008.9311
278684246,-1953,0345,-0240,0032,-0005,-0025,087.1511,006.5460,009.9371
278689930,-1923,0340,-0239,0030,-0012,-0026,088.4751,006.9341,010.0135
278695672,-1933,0314,-0254,0028,-0004,-0024,088.6224,006.9712,010.0133
278701420,-1916,0307,-0242,0017,0002,-0015,092.8086,007.4253,009.1337
278707071,-1909,0299,-0236,0013,0002,0000,091.6124,007.0828,009.0972
278712590,-1920,0313,-0253,0014,0000,0011,091.7011,006.9523,008.8986
278718170,-1961,0294,-0273,0018,0013,0021,092.3973,007.4310,009.2826
278723924,-1967,0281,-0262,0017,0019,0032,096.7886,007.8974,008.4224
278729754,-1991,0262,-0259,-0001,0028,0032,096.2472,007.4498,008.0925
278735446,-2018,0255,-0256,-0017,0029,0029,098.1991,007.3369,007.4327
278741174,-2020,0272,-0269,-0018,0023,0021,098.4471,007.1526,007.1811
278746923,-2013,0283,-0234,0005,0001,0018,097.9281,007.5519,007.7298
278752537,-2018,0305,-0253,0024,-0009,0005,092.4767,006.4618,008.0254
278758121,-1986,0319,-0229,0054,-0019,-0006,093.0972,007.1045,008.6352
278763761,-1958,0314,-0202,0060,-0023,-0019,088.6610,006.4100,009.1670
278769466,-1937,0336,-0231,0050,-0019,-0020,085.9177,005.7257,009.0897
278775139,-1931,0331,-0244,0027,-0008,-0018,088.1679,006.7916,009.9076
278780807,-1921,0322,-0268,0011,0000,-0012,089.9855,007.1172,009.7016
278786381,-1947,0320,-0284,-0006,0012,-0001,093.3343,007.8713,009.5010
278791968,-1953,0321,-0264,-0012,0022,0006,095.1101,008.2221,009.3154
278797633,-1983,0313,-0277,-0006,0026,0017,092.5405,007.5184,009.3400
278803305,-1986,0305,-0267,0007,0016,0029,095.1243,007.8923,008.9334
278808979,-2024,0314,-0259,0027,0011,0025,094.4731,007.5268,008.7123
278814727,-2013,0325,-0247,0049,-0005,0017,092.6978,007.1624,008.8308
278820383,-2000,0324,-0238,0058,-0017,0013,090.4065,006.8680,009.2038
278826049,-1964,0334,-0233,0055,-0039,0003,089.5779,006.6592,009.1965
278831722,-1924,0332,-0231,0049,-0049,-0009,088.1093,006.6458,009.7021
278837371,-1927,0336,-0226,0042,-0041,-0014,088.2228,006.7314,009.7855
278843091,-1900,0331,-0282,0043,-0022,-0005,087.2648,006.5614,009.8927
278848751,-1946,0329,-0276,0036,-0010,0000,094.0184,008.3973,009.8765
278854300,-1957,0326,-0261,0033,0005,0007,093.2200,007.9129,009.5669
278859913,-1968,0300,-0250,0035,0019,0009,091.8700,007.4432,009.4429
278865513,-1990,0307,-0250,0045,0025,0013,093.2739,007.1273,008.5792
278871185,-1997,0330,-0281,0056,0016,0018,092.3626,007.0709,008.7933
278876930,-2029,0313,-0282,0061,0002,0020,093.8055,008.0040,009.4596
278882536,-2004,0322,-0256,0060,-0017,0017,095.2897,007.7942,008.7176
278888264,-2004,0305,-0267,0052,-0034,0013,091.2503,007.0966,009.1753
278893997,-1983,0298,-0269,0022,-0041,0009,094.6929,007.5268,008.5900
278899701,-1967,0281,-0295,-0005,-0040,0005,095.2398,007.6285,008.5391
278905310,-1948,0276,-0273,-0007,-0032,0004,099.9141,008.5184,008.0799
278910924,-1932,0275,-0280,0010,-0019,0015,097.5335,007.8224,008.0645
278916603,-1946,0279,-0291,0020,-0005,0016,098.6693,008.1847,008.1059
278922262,-1957,0271,-0303,0018,0011,0024,099.3183,008.4415,008.1699
278927968,-1984,0276,-0271,0011,0020,0033,101.4449,008.7563,007.8533
278933692,-2005,0297,-0271,0003,0031,0030,097.0095,007.5710,007.9371
278939301,-2030,0302,-0252,0003,0039,0026,095.3684,007.6249,008.4801
278944969,-2045,0305,-0218,0002,0031,0020,092.7987,006.9452,008.4645
278950584,-2037,0305,-0225,-0002,0012,0011,088.4893,005.9455,008.4848
278956191,-2022,0332,-0232,0000,-0002,0006,089.7323,006.2460,008.5166
278961685,-1990,0339,-0244,0011,-0012,-0002,088.1124,006.4595,009.3723
278967325,-1973,0351,-0254,0025,-0018,-0008,089.0904,006.9239,009.6923
278972988,-1978,0366,-0242,0041,-0009,-0008,089.1643,007.2491,010.1275
278978678,-1934,0370,-0280,0052,-0002,0000,086.5028,006.8041,010.5209
278984227,-1958,0375,-0294,0049,0013,0007,090.6946,008.2148,010.8575
278989967,-1945,0357,-0247,0048,0030,0015,091.3986,008.4181,010.8403
278995708,-1955,0354,-0247,0037,0038,0014,087.5011,006.9570,010.3443
279001512,-1963,0345,-0262,0023,0030,0014,088.3168,007.1099,010.2519
279007290,-1976,0331,-0251,0019,0019,0014,090.7721,007.5435,009.9268
279013019,-1971,0309,-0241,0026,0003,0012,090.3455,007.0798,009.4542
279018684,-1971,0287,-0259,0029,-0005,0013,091.2550,006.8531,008.8419
279024364,-1943,0287,-0224,0041,-0008,0015,095.6935,007.4703,008.2118
279030036,-1959,0294,-0244,0038,-0002,0019,090.6975,006.4075,008.4223
279035697,-1967,0293,-0243,0033,0005,0022,093.0933,007.0936,008.5529
279041395,-1954,0294,-0242,0032,0012,0018,092.7860,006.9451,008.4633
279047111,-1977,0301,-0242,0036,0016,0021,092.5908,006.9849,008.5715
279052872,-1957,0291,-0209,0043,0017,0026,091.8633,006.8865,008.6739
279058654,-1979,0291,-0274,0040,0017,0029,088.4519,005.9126,008.4347
279064369,-1983,0293,-0264,0032,0016,0029,097.2888,008.0561,008.3620
279070125,-1989,0293,-0275,0021,0018,0029,094.7827,007.4249,008.4180
279075858,-1990,0296,-0229,0007,0017,0022,096.4240,007.8330,008.3799
279081564,-1978,0312,-0273,0011,0015,0015,090.1458,006.3246,008.4722
279087294,-1964,0305,-0261,0029,0007,0011,094.7838,007.9579,009.0318
279092963,-1964,0316,-0276,0030,0000,0007,093.4953,007.4110,008.7986
279098451,-1941,0320,-0270,0031,-0005,0000,094.2774,007.9355,009.1679
279104003,-1946,0313,-0261,0029,-0002,0002,093.1603,007.7955,009.3745
279109640,-1954,0307,-0273,0017,0005,0005,092.8987,007.5090,009.1099
279115248,-1965,0331,-0280,0003,0004,-0001,094.9241,007.8904,008.9039
279120801,-1953,0318,-0301,-0001,0006,-0001,093.1742,008.0019,009.6278
279126318,-1955,0342,-0258,0010,0019,-0002,096.8169,008.7141,009.2044
279131986,-1974,0358,-0237,0026,0024,0003,089.3466,007.2354,010.0137
279137686,-1994,0347,-0241,0026,0016,0012,086.4405,006.6709,010.3133
279143460,-2001,0351,-0232,0019,0006,0020,088.2165,006.7989,009.8178
279149046,-2019,0350,-0244,0011,0002,0023,086.5790,006.4801,009.9660
279154653,-1997,0366,-0237,0006,0002,0024,088.2431,006.8073,009.8292
279160257,-1969,0362,-0233,0010,-0006,0018,086.0188,006.6315,010.4423
279165983,-1960,0358,-0253,0025,-0010,0017,086.0704,006.6263,010.4160
279171724,-1947,0369,-0267,0036,-0018,0016,088.8282,007.3097,010.3427
279177522,-1930,0361,-0281,0039,-0019,0024,089.1464,007.7166,010.7984
279183293,-1940,0329,-0287,0032,-0015,0030,091.2927,008.1842,010.5756
279189034,-1931,0311,-0264,0023,-0005,0030,094.5622,008.3016,009.5131
279194678,-1908,0289,-0258,0015,0010,0028,093.3378,007.6315,009.1265
279200382,-1932,0276,-0278,0006,0024,0026,094.9338,007.6138,008.5939
279206039,-1946,0242,-0261,-0003,0023,0025,098.5120,008.1468,008.0981
279211638,-1980,0244,-0259,-0018,0014,0025,100.2872,007.5307,007.0159
279217372,-2000,0273,-0261,-0016,0015,0030,099.6103,007.3734,007.0357
279223025,-2000,0274,-0281,-0011,0016,0034,096.4470,007.3624,007.8657
279228732,-2000,0278,-0267,-0002,0019,0048,098.9755,007.9894,007.8088
279234356,-2016,0306,-0226,0001,0017,0056,096.6306,007.4822,007.9426
279240016,-2025,0300,-0213,-0003,0006,0054,088.8579,006.2001,008.7176
279245538,-2032,0307,-0193,-0016,-0008,0046,088.4967,005.9084,008.4213
279251193,-1983,0288,-0237,-0019,-0006,0036,085.0948,005.3018,008.6178
279256851,-1971,0283,-0230,-0023,-0002,0026,093.4779,006.9114,008.2274
279262600,-1957,0300,-0290,-0019,0002,0014,092.1204,006.5309,008.1651
279268247,-1982,0295,-0270,-0021,0003,0001,097.7493,008.5675,008.7886
279273867,-1971,0282,-0262,-0018,0006,0000,095.4019,007.5687,008.4287
279279386,-1981,0290,-0273,-0020,0018,-0001,096.1656,007.4849,008.1114
279285061,-1985,0312,-0250,-0015,0040,0002,096.5404,007.8041,008.3537
279290660,-2004,0331,-0201,-0003,0045,0004,091.5641,007.0240,008.9921
279296222,-2010,0332,-0225,0023,0033,0003,084.1248,005.5363,009.4091
279301823,-2016,0325,-0232,0033,0020,-0003,087.8492,006.3728,009.3703
279307402,-2015,0347,-0258,0039,0001,-0001,088.9748,006.4833,009.1345
279313002,-1960,0338,-0242,0035,-0004,0005,090.0413,007.2440,009.8236
279318585,-1936,0355,-0226,0032,-0011,0016,088.8042,006.8898,009.7810
279324292,-1924,0329,-0226,0023,-0013,0025,085.5539,006.4981,010.4634
279330066,-1949,0318,-0249,0013,-0009,0030,088.0600,006.6010,009.6410
279335712,-1924,0310,-0256,0007,0001,0028,091.7374,007.2432,009.2314
279341334,-1944,0295,-0275,0023,0012,0026,092.9181,007.4957,009.1533
279347034,-1948,0311,-0291,0036,0021,0023,096.6073,008.0152,008.5722
279352776,-1971,0281,-0280,0046,0023,0027,096.2766,008.4462,009.1460
279358573,-1972,0278,-0262,0043,0022,0021,098.3577,007.9404,007.9635
279364306,-1992,0270,-0252,0026,0023,0015,096.2210,007.4323,008.0341
279370025,-2004,0255,-0243,0011,0016,0015,096.1977,007.1054,007.6808
279375778,-1979,0258,-0232,0007,0010,0016,096.8517,006.8214,007.1990
279381442,-1981,0269,-0228,0018,-0003,0012,094.9081,006.5959,007.4569
279387097,-1956,0281,-0254,0034,-0021,0008,093.2696,006.4785,007.7649
279392798,-1963,0296,-0256,0039,-0021,0004,095.4825,007.4185,008.2246
279398561,-1936,0316,-0254,0052,-0022,0007,093.7758,007.3211,008.6248
279404241,-1940,0350,-0243,0053,-0020,0004,091.7903,007.3687,009.3306
279409839,-1937,0353,-0271,0043,-0008,0006,087.6786,006.9828,010.3121
279415556,-1966,0350,-0265,0025,0003,0013,091.0756,007.9355,010.3308
279421246,-1951,0344,-0255,0006,0024,0019,090.2681,007.5103,010.0682
279426935,-1974,0341,-0239,-0002,0033,0022,089.7518,007.3133,009.9961
279432588,-1982,0323,-0263,0004,0031,0025,088.1593,006.7448,009.7840
279438240,-2018,0312,-0249,0017,0018,0023,092.8583,007.5420,009.1995
279443982,-2018,0296,-0234,0020,0008,0026,091.6785,006.8808,008.7492
279449640,-2008,0306,-0234,0025,-0002,0020,091.5205,006.5023,008.3080
279455249,-1992,0302,-0258,0023,-0018,0019,090.5202,006.5626,008.7018
279460976,-1955,0313,-0244,0027,-0019,0009,094.0532,007.3754,008.6087
279466685,-1966,0328,-0275,0031,-0021,0001,090.7622,006.9620,009.1562
279472357,-1954,0331,-0230,0039,-0016,-0002,093.4401,007.9584,009.5067
279478029,-1972,0357,-0246,0055,-0008,0004,087.3642,006.4453,009.6232
279483598,-1943,0364,-0276,0066,0003,0010,087.9010,007.0521,010.3269
279489252,-1977,0368,-0251,0063,0009,0012,090.6830,008.0600,010.6452
279494966,-1974,0351,-0240,0037,0017,0017,087.1709,006.9958,010.5335
279500766,-2008,0350,-0252,0015,0021,0023,087.7183,006.7996,010.0215
279506531,-1992,0321,-0250,0001,0022,0026,089.1704,007.0759,009.8783
279512151,-2017,0307,-0224,0001,0017,0027,091.3436,007.0580,009.0872
279517826,-1996,0286,-0218,0004,0002,0023,089.1429,006.1766,008.6161
279523427,-1986,0284,-0263,0004,0003,0022,090.7029,006.1611,008.1114
279529022,-1978,0255,-0233,0011,-0002,0016,096.4792,007.6007,008.1432
279534711,-1936,0299,-0262,0019,-0007,0011,095.4392,006.5311,007.2435
279540391,-1959,0304,-0242,0030,-0007,0010,094.3131,007.7187,008.9372
279546002,-1952,0320,-0245,0040,-0009,0008,091.4268,006.8611,008.8052
279551599,-1932,0345,-0256,0043,-0007,0009,090.5940,007.0722,009.3634
279557221,-1924,0351,-0270,0029,0006,0018,089.7666,007.4590,010.1978
279562935,-1951,0359,-0295,0019,0020,0019,090.9204,007.8992,010.3565
279568708,-1941,0342,-0253,0000,0021,0015,092.8711,008.5417,010.4400
279574309,-1979,0323,-0240,-0002,0017,0012,089.4630,007.1961,009.9527
279579971,-1992,0331,-0251,-0004,0010,0007,089.9655,006.7746,009.1887
279585554,-2002,0322,-0262,0011,0010,0009,090.5169,007.1101,009.4579
279591208,-2008,0319,-0236,0021,0008,0003,092.5980,007.3826,009.1004
279596809,-1988,0295,-0229,0032,-0001,0002,089.5333,006.5432,009.0159
279602496,-1990,0301,-0225,0031,-0008,0000,091.2961,006.4835,008.3650
279607994,-1981,0305,-0205,0021,-0005,-0001,089.9695,006.3591,008.6164
279613596,-1953,0327,-0199,0022,-0004,0000,086.9434,005.7716,008.7631
279619114,-1978,0341,-0244,0022,0005,0001,084.5465,005.7287,009.5675
279624720,-1965,0328,-0261,0023,0004,0006,089.3681,007.0585,009.8035
279630301,-1965,0328,-0266,0022,0001,0010,092.0426,007.5003,009.4395
279635949,-1988,0329,-0239,0020,0002,0013,092.3234,007.6099,009.4817
279641615,-1971,0336,-0268,0020,0002,0016,088.9454,006.6596,009.3891
279647246,-1958,0319,-0274,0017,0001,0017,092.1569,007.7422,009.7110
279652937,-1952,0341,-0257,0020,0004,0015,094.1191,007.8726,009.1928
279658552,-1956,0320,-0256,0017,0006,0013,089.8571,007.3242,009.9966
279664232,-1969,0319,-0250,0017,0001,0011,092.2115,007.3552,009.1988
279669880,-1967,0312,-0240,0011,0005,0012,091.2646,007.1100,009.2037
279675572,-1974,0298,-0265,0001,0011,0012,090.8226,006.8333,008.9886
279681247,-1970,0290,-0226,-0004,0016,0012,095.4023,007.6499,008.5345
279686892,-1977,0298,-0254,-0011,0016,0012,090.6892,006.3259,008.3562
279692645,-1995,0302,-0230,-0010,0015,0013,094.1350,007.3674,008.6053
279698336,-1977,0313,-0263,-0001,0006,0009,090.2017,006.3930,008.6082
279703887,-1967,0333,-0261,0018,0002,0011,093.6307,007.5901,009.0366
279709585,-1977,0342,-0277,0026,-0005,0012,091.1300,007.4243,009.6853
279715256,-1964,0355,-0274,0022,0000,0011,092.4584,007.9044,009.8298
279720840,-1958,0358,-0250,0018,0005,0017,090.8524,007.8002,010.2938
279726543,-1974,0376,-0264,0013,0012,0022,087.9980,007.0667,010.3753
279732346,-1989,0368,-0258,0002,0016,0021,088.5764,007.5415,010.8498
279738096,-1968,0348,-0233,0000,0009,0017,088.4623,007.2275,010.4398
279743663,-1989,0337,-0258,-0003,0012,0011,087.1702,006.5839,009.9862
279749324,-1968,0344,-0212,0004,0017,0014,091.2877,007.3639,009.5766
279755007,-1986,0325,-0226,0013,0013,0008,084.3942,005.8836,009.9576
279760658,-2006,0324,-0251,0019,0013,0011,088.7975,006.4635,009.2176
279766442,-2010,0340,-0242,0024,0013,0013,091.5377,007.1126,009.1699
279772139,-1989,0322,-0253,0027,0017,0014,088.6879,006.7307,009.6484
279777871,-1985,0322,-0262,0026,0014,0012,092.0026,007.2079,009.1379
279783627,-1969,0286,-0227,0013,0014,0014,092.6539,007.4480,009.2258
279789357,-1953,0294,-0244,0011,0007,0009,091.7724,006.3711,008.1307
279794955,-1963,0293,-0253,0023,-0002,0007,093.2504,007.1042,008.6044
279800582,-1927,0303,-0253,0038,-0006,0002,094.3365,007.2740,008.4702
279806176,-1910,0312,-0256,0054,-0014,-0006,093.2062,007.3853,008.9579
279811826,-1919,0325,-0221,0062,-0012,-0007,092.7589,007.5320,009.2843
279817483,-1909,0338,-0205,0052,-0003,-0002,087.4028,006.4057,009.6256
279823069,-1905,0348,-0236,0031,0009,0002,084.7230,006.0186,010.0507
279828716,-1954,0360,-0254,0013,0029,0011,087.8229,006.9968,010.3684
279834518,-1996,0340,-0268,-0003,0042,0014,088.8873,007.3365,010.4530
279840263,-2013,0323,-0242,-0008,0037,0021,092.0769,007.5680,009.5772
279845943,-2014,0298,-0228,-0003,0029,0023,090.1550,006.6896,009.0752
279851611,-2022,0312,-0230,0010,0017,0024,090.9887,006.3562,008.3549
279857283,-2028,0297,-0220,0035,0000,0027,089.7718,006.4117,008.8189
279862832,-2019,0290,-0209,0042,-0011,0022,090.0096,006.0942,008.2997
279868567,-1986,0296,-0227,0042,-0023,0008,089.1546,005.8052,008.1566
279874244,-1977,0290,-0228,0035,-0027,0000,091.1341,006.5122,008.5120
279879753,-1964,0313,-0277,0026,-0020,-0002,091.6599,006.4931,008.3234
279885423,-1946,0337,-0242,0040,-0016,0003,095.2668,008.1100,009.1501
279891048,-1932,0350,-0227,0056,-0007,-0002,088.5320,006.8563,009.8899
279896650,-1941,0370,-0240,0067,0001,0001,086.3716,006.5679,010.2931
279902320,-1951,0350,-0251,0062,0011,0008,086.5542,006.9663,010.8496
279908021,-1936,0355,-0258,0058,0020,0013,089.5132,007.2518,010.0778
279913787,-1972,0344,-0243,0043,0018,0018,089.4847,007.4950,010.4330
279919560,-1984,0335,-0194,0023,0014,0018,088.6115,006.8366,009.8219
279925283,-2004,0333,-0210,0019,0006,0024,082.9624,005.3301,009.5585
279930956,-1979,0328,-0239,0025,0001,0023,086.0901,005.9566,009.4252
279936562,-1981,0305,-0249,0026,-0012,0026,089.9081,006.8744,009.4144
279942386,-1964,0286,-0291,0022,-0011,0025,093.0573,007.0991,008.6577
279948110,-1961,0273,-0258,0016,-0006,0027,099.5552,008.5085,008.2376
279953804,-1970,0264,-0269,0006,0008,0028,096.2994,007.2777,007.8928
279959400,-1964,0273,-0253,0005,0015,0028,099.1218,007.7535,007.6095
279965044,-1970,0269,-0253,0004,0026,0026,095.8004,007.2103,007.9586
279970724,-1991,0271,-0239,0010,0031,0032,096.6983,007.2595,007.7598
279976444,-1980,0298,-0257,0015,0036,0028,094.5461,006.7263,007.7568
279982166,-1996,0308,-0233,0018,0035,0030,094.1250,007.3993,008.6772
279987878,-1990,0327,-0226,0020,0022,0029,090.1052,006.4813,008.7906
279993590,-1985,0342,-0224,0009,0014,0023,087.9045,006.3785,009.4052
279999259,-2004,0352,-0224,0001,0014,0020,086.6280,006.3366,009.8241
280004906,-1986,0372,-0228,0004,0011,0016,085.9813,006.2709,009.9789
280010574,-1977,0371,-0222,0005,0019,0019,085.0260,006.4544,010.6867
280016364,-1985,0363,-0232,0005,0020,0023,084.4743,006.2728,010.6255
280022044,-2004,0356,-0232,0001,0025,0022,086.4280,006.5911,010.3377
280027749,-2000,0370,-0234,0000,0025,0020,086.7751,006.4920,010.0483
280033259,-1979,0347,-0229,0004,0026,0017,085.9411,006.5679,010.5173
280039017,-1974,0339,-0242,0011,0016,0012,087.2595,006.4897,009.8680
280044746,-1969,0350,-0266,0018,0009,0011,089.4084,006.9378,009.7277
280050407,-1967,0341,-0263,0029,0006,0007,091.0031,007.6500,010.1213
280056077,-1956,0348,-0250,0036,0000,0001,091.2587,007.4787,009.7945
280061535,-1935,0339,-0241,0036,-0007,0003,089.1342,007.1339,010.1107
280067214,-1905,0334,-0270,0029,-0004,0001,089.0269,006.9700,009.9151
280072823,-1921,0317,-0277,0025,-0008,-0002,092.6505,007.9807,009.9403
280078431,-1940,0296,-0269,0018,0004,0001,094.7864,008.0972,009.3297
280084034,-1943,0313,-0284,0006,0015,0006,095.8390,007.7759,008.6178
280089611,-1947,0288,-0242,-0003,0018,0010,095.6947,008.2512,009.2049
280095248,-1981,0286,-0289,-0005,0018,0016,093.3423,006.8905,008.3440
280100939,-1985,0294,-0262,-0003,0015,0011,099.3790,008.3823,008.1995
280106596,-1998,0292,-0263,0007,0011,0006,094.7114,007.3242,008.4496
280112211,-1992,0299,-0267,0016,0009,0008,095.5910,007.4249,008.2997
280117849,-1998,0324,-0247,0014,0002,0009,095.2201,007.5558,008.5617
280123479,-1989,0325,-0263,0018,-0001,0006,090.4530,006.8858,009.2761
280129081,-1979,0360,-0276,0021,-0004,0001,092.7341,007.4809,009.2762
280134699,-1960,0343,-0279,0017,-0003,-0005,090.8953,007.8390,010.4180
280140375,-1972,0345,-0244,0010,-0001,-0009,092.9183,007.9898,009.8556
280145954,-1979,0327,-0268,-0005,0006,-0007,088.4887,006.8326,009.9246
280151503,-1968,0338,-0264,-0006,0016,-0010,093.3656,007.6808,009.3233
280157147,-1971,0330,-0270,-0002,0019,-0012,091.4323,007.5099,009.7888
280162845,-1960,0333,-0288,0013,0018,-0009,093.1076,007.7156,009.4604
280168508,-1968,0342,-0275,0030,0013,0002,094.5931,008.3077,009.6618
280174122,-1973,0333,-0273,0059,0007,0008,092.1544,007.7821,009.8774
280179755,-1960,0352,-0244,0076,0007,0007,093.0107,007.7651,009.5414
280185358,-1947,0349,-0265,0076,0005,0007,087.8446,006.8908,010.2520
280191032,-1946,0355,-0255,0052,0008,0008,091.1641,007.7222,010.1479
280196709,-1948,0327,-0244,0027,0006,0008,089.0642,007.2917,010.3609
280202344,-1941,0340,-0220,0011,0010,0010,090.4677,007.0093,009.4400
280208028,-1954,0318,-0237,0014,0012,0012,086.1699,006.2965,009.9894
280213736,-1943,0319,-0243,0019,0017,0015,090.8712,006.8928,009.1481
280219472,-1970,0294,-0243,0025,0019,0020,090.9129,007.0511,009.3480
280225187,-1993,0299,-0254,0026,0021,0023,093.4666,006.9418,008.3754
280230955,-2025,0296,-0265,0023,0028,0021,093.9667,007.2183,008.5573
280236657,-2019,0282,-0266,0017,0037,0024,095.5190,007.3995,008.2969
280242396,-2015,0292,-0256,0011,0042,0025,096.9934,007.4448,007.9181
280248133,-2030,0302,-0259,0007,0044,0029,094.5352,007.1415,008.2914
280253842,-2032,0294,-0252,-0002,0040,0034,094.1315,007.2030,008.4891
280259474,-2021,0278,-0216,-0006,0039,0034,094.1603,006.9847,008.2214
280265128,-2000,0270,-0213,-0011,0038,0033,091.1719,005.9569,007.8043
280270808,-1978,0260,-0209,-0016,0032,0030,091.9707,006.0344,007.6834
280276501,-1988,0274,-0209,-0013,0027,0029,092.4720,005.9730,007.4703
280282294,-1936,0257,-0241,-0010,0026,0020,090.7857,005.9410,007.9083
280287982,-1946,0283,-0241,0000,0036,0011,097.2564,007.1317,007.5330
280293543,-1932,0305,-0227,0007,0038,0012,093.8310,006.9800,008.3365
280299205,-1945,0316,-0221,0007,0042,0008,090.1363,006.5972,009.0222
280304816,-1959,0329,-0239,0005,0042,0008,088.6295,006.3868,009.2469
280310446,-1959,0357,-0251,0000,0042,0006,089.9179,006.9268,009.5692
280315948,-1949,0359,-0279,-0001,0047,0004,088.8410,007.2171,010.4024
280321622,-1964,0358,-0279,0001,0041,-0002,091.9808,008.1276,010.4377
280327312,-1934,0366,-0241,0004,0030,-0006,091.6590,007.9351,010.3112
280332933,-1920,0331,-0261,0005,0013,-0020,086.8183,006.8849,010.7431
280338629,-1929,0332,-0269,0007,0003,-0026,092.4648,007.6807,009.6905
280344276,-1927,0331,-0273,0017,0002,-0030,092.8158,007.8295,009.7561
280349938,-1928,0321,-0264,0026,0004,-0027,093.3174,007.9521,009.7303
280355631,-1915,0337,-0275,0031,0002,-0027,093.1827,007.6614,009.4120
280361300,-1923,0350,-0265,0037,-0002,-0024,092.9509,008.0708,010.0089
280366992,-1918,0358,-0251,0043,0003,-0015,090.7362,007.6825,010.3319
280372669,-1940,0357,-0246,0041,0009,-0003,088.7188,007.2981,010.5854
280378302,-1942,0361,-0246,0039,0011,0003,088.3775,007.0851,010.4062
280384022,-1970,0345,-0232,0042,0014,0012,088.0829,007.0985,010.5459
280389800,-1991,0341,-0253,0046,0006,0023,087.6984,006.5420,009.8486
280395431,-1995,0335,-0251,0050,0001,0025,090.6088,007.1957,009.7089
280401054,-1995,0330,-0293,0055,0003,0025,090.5896,007.0548,009.5179
280406678,-1986,0325,-0282,0054,0003,0021,095.6860,008.3609,009.3814
280412321,-1961,0318,-0277,0048,0000,0019,094.4545,007.9280,009.2859
280417904,-1990,0330,-0280,0041,-0004,0017,094.6922,007.9296,009.2036
280423558,-1981,0328,-0281,0037,-0012,0007,093.8450,007.8870,009.4362
280429251,-1986,0331,-0275,0046,-0008,0001,094.2389,007.9655,009.3914
280434852,-1981,0296,-0301,0041,-0005,-0009,093.2583,007.7490,009.4604
280440455,-1983,0310,-0283,0039,-0007,-0019,099.5977,008.6195,008.3836
280446153,-1966,0335,-0269,0039,-0010,-0023,095.4916,007.9407,008.9323
280451859,-1988,0326,-0287,0044,-0010,-0024,091.9729,007.6351,009.7549
280457563,-1957,0331,-0266,0057,-0008,-0020,095.2623,008.1548,009.2449
280463249,-1955,0331,-0276,0059,-0005,-0014,091.9760,007.5540,009.6359
280468929,-1953,0339,-0270,0056,-0005,-0007,093.5462,007.9659,009.5967
280474572,-1971,0341,-0311,0051,-0007,0003,091.8879,007.7199,009.8745
280480226,-1988,0333,-0279,0044,-0002,0008,096.2436,008.9635,009.8056
280485871,-1990,0339,-0247,0033,0005,0014,093.1174,007.7611,009.4789
280491561,-1981,0325,-0258,0021,0014,0017,089.2251,006.8806,009.6919
280497264,-1991,0313,-0264,0019,0013,0021,092.3045,007.3752,009.2733
280503047,-2000,0297,-0281,0030,0010,0028,093.7944,007.4697,008.8942
280508672,-1991,0319,-0286,0044,0008,0029,097.1070,007.9520,008.4071
280514356,-2001,0303,-0273,0048,0000,0022,095.0788,008.0798,009.1872
280519899,-1981,0347,-0238,0055,-0002,0018,095.4307,007.6424,008.5644
280525559,-1990,0343,-0278,0051,0000,0012,087.1321,006.6349,010.0980
280531136,-1982,0345,-0282,0051,0001,0006,092.9404,007.9466,009.7455
280536733,-1957,0334,-0256,0043,0004,0002,092.6562,007.9767,009.8826
280542377,-1941,0342,-0288,0034,0005,0001,090.6947,007.2624,009.6560
280547998,-1936,0323,-0315,0028,0007,0002,093.7881,008.4283,010.0276
280553640,-1943,0327,-0276,0029,0007,0004,097.9650,009.1866,009.4082
280559282,-1939,0308,-0275,0026,0009,0011,093.0163,007.8385,009.5687
280564977,-1953,0337,-0281,0030,0012,0014,095.3084,007.9842,008.9677
280570699,-1955,0316,-0282,0023,0015,0013,092.8903,008.0793,009.9116
280576435,-1978,0317,-0280,0016,0017,0017,095.3850,008.1049,009.0788
280582200,-1985,0321,-0259,0013,0021,0023,094.6788,007.9349,009.1138
280587933,-1997,0310,-0239,0014,0023,0023,091.9469,007.2622,009.2004
280593664,-1995,0321,-0233,0026,0016,0020,090.9018,006.6784,008.7807
280599406,-1985,0318,-0216,0026,0004,0018,089.1905,006.5572,009.1894
280605110,-1992,0310,-0203,0025,-0004,0017,087.4127,006.0684,009.0922
280610750,-1956,0305,-0249,0022,-0005,0020,086.5804,005.7038,008.8211
280616384,-1972,0304,-0246,0019,0001,0019,093.2581,007.3397,008.8710
280622071,-1951,0314,-0246,0023,0005,0016,092.2320,006.9809,008.7513
280627755,-1953,0322,-0262,0029,0009,0012,091.3862,007.1052,009.1912
280633447,-1960,0332,-0254,0029,0013,0007,092.6671,007.5950,009.3833
280639184,-1983,0323,-0246,0030,0017,0004,090.5829,007.2338,009.6441
280644829,-1956,0308,-0264,0031,0025,0001,090.7585,006.9531,009.2025
280650502,-1960,0323,-0254,0027,0020,0000,094.3895,007.6776,008.9103
280656030,-1961,0313,-0208,0022,0014,0001,091.3019,007.2423,009.4008
280661686,-1965,0291,-0253,0015,0002,0006,086.5185,005.8176,009.0264
280667275,-1979,0276,-0249,0011,0002,0009,095.2464,007.4197,008.3519
280672894,-1954,0286,-0287,0005,0002,0015,095.4001,007.0580,007.8945
280678507,-1954,0271,-0246,0003,0015,0018,098.7064,008.4101,008.3825
280684174,-1977,0276,-0236,0003,0013,0023,095.1731,006.9626,007.8492
280689821,-1976,0276,-0241,0012,0007,0021,093.7245,006.7086,007.9635
280695489,-1985,0296,-0254,0026,0000,0021,094.5535,006.9015,007.9531
280701069,-1989,0324,-0273,0041,0005,0017,093.9257,007.2399,008.5380
280706757,-1972,0323,-0255,0051,0007,0014,093.4223,007.7681,009.3382
280712393,-1981,0342,-0242,0040,0004,0015,091.4526,007.2076,009.2983
280718025,-1964,0340,-0241,0029,0007,0012,088.4202,006.8195,009.8509
280723695,-1959,0343,-0257,0021,0013,0013,088.8247,006.8997,009.8183
280729441,-1974,0336,-0251,0019,0023,0013,090.4845,007.4312,009.9489
280735162,-1971,0342,-0236,0015,0028,0013,090.1708,007.1083,009.6229
280740885,-1991,0307,-0278,0001,0018,0009,087.8171,006.6729,009.8738
280746508,-1991,0306,-0256,-0005,0017,0015,096.3140,007.9770,008.6523
280752177,-1998,0262,-0270,0000,0013,0017,092.9391,007.1536,008.7505
280757766,-1984,0274,-0278,0016,0010,0015,099.7743,007.6720,007.3486
280763455,-1979,0285,-0230,0027,0009,0016,098.5616,007.9266,007.9298
280769154,-1980,0297,-0261,0036,0006,0011,091.4088,006.3794,008.2285
280774826,-1968,0316,-0239,0041,0005,0010,095.0140,007.5543,008.5675
280780480,-1945,0331,-0254,0044,0010,0014,089.9349,006.7431,009.1920
280786189,-1947,0332,-0263,0032,0011,0019,090.9996,007.4068,009.7197
280791931,-1956,0321,-0256,0026,0006,0021,091.8400,007.6024,009.6747
280797605,-1955,0326,-0269,0013,0002,0021,091.9258,007.3184,009.2776
280803289,-1939,0306,-0291,0009,0007,0016,092.9905,007.7787,009.4958
280808919,-1949,0313,-0274,0013,0010,0014,097.1963,008.4922,008.9166
280814640,-1952,0326,-0249,0024,0005,0009,094.1384,007.8184,009.1495
280820284,-1958,0336,-0278,0031,-0003,-0007,090.3473,007.0845,009.5130
280825903,-1941,0337,-0267,0036,-0012,-0009,093.2261,008.0623,009.7562
280831598,-1925,0344,-0252,0042,-0010,-0015,091.5640,007.6661,009.8490
280837288,-1943,0358,-0240,0049,-0007,-0010,089.4426,007.3041,010.1474
280842976,-1934,0341,-0258,0047,-0007,0001,087.0058,006.8702,010.4697
280848623,-1940,0364,-0276,0037,-0003,0006,090.8010,007.5348,009.9510
280854217,-1941,0356,-0275,0029,0005,0019,090.4899,008.0005,010.7044
280859919,-1981,0343,-0282,0026,0008,0024,091.0856,007.9192,010.3587
280865645,-1996,0324,-0270,0027,0016,0033,092.9251,007.9902,009.7641
280871391,-2012,0304,-0258,0028,0009,0033,093.0886,007.5530,009.1619
280877058,-2027,0291,-0301,0021,0016,0030,093.6331,007.1904,008.5422
280882738,-2005,0307,-0264,0028,0017,0026,099.6176,008.4724,008.1391
280888461,-2018,0310,-0257,0041,0004,0021,093.2463,007.2867,008.7739
280894146,-2012,0292,-0265,0056,-0019,0015,092.8372,007.1487,008.7286
280899843,-1993,0314,-0252,0059,-0029,0009,095.6504,007.4381,008.2031
280905551,-1957,0316,-0281,0055,-0028,0001,091.5076,007.0621,009.0399
280911204,-1934,0329,-0267,0047,-0013,0002,095.1979,008.1890,009.1847
280916904,-1929,0320,-0277,0032,-0006,0009,091.9407,007.6932,009.7026
280922521,-1942,0337,-0276,0016,0002,0013,094.1994,008.0847,009.3967
280928179,-1959,0320,-0255,0000,0022,0013,092.3368,007.9561,009.8987
280933758,-1972,0321,-0269,-0009,0032,0016,091.7312,007.2510,009.2117
280939443,-2017,0317,-0225,-0009,0038,0019,093.3804,007.7257,009.2546
280945110,-2019,0299,-0281,0010,0039,0014,088.2138,006.1554,008.9024
280950813,-2024,0312,-0228,0024,0037,0010,097.2499,008.0251,008.3719
280956527,-2020,0313,-0213,0032,0019,0008,088.6111,006.1797,008.8018
280962187,-1998,0332,-0254,0038,-0004,0010,087.4396,005.9166,008.8071
280967806,-1990,0334,-0270,0033,-0016,0008,090.9557,007.2623,009.4982
280973479,-1970,0339,-0274,0024,-0010,0000,092.3089,007.6496,009.5262
280979004,-1934,0341,-0278,0016,-0006,-0001,092.1604,007.8084,009.7822
280984594,-1932,0346,-0267,0019,-0006,-0004,092.4360,008.0687,010.0135
280990260,-1931,0349,-0273,0015,-0001,-0005,090.7725,007.7045,010.1613
280995908,-1916,0333,-0288,0015,0012,-0006,091.3682,007.9369,010.2466
281001626,-1918,0328,-0273,0025,0019,-0005,094.3123,008.4645,009.8196
281007305,-1923,0342,-0231,0046,0022,0002,092.9140,007.9519,009.6909
281012985,-1947,0344,-0271,0053,0018,0010,086.9410,006.6507,010.1134
281018717,-1960,0323,-0263,0044,0009,0014,092.0717,007.9643,010.0064
281024441,-1961,0318,-0261,0022,0015,0017,092.4057,007.4799,009.2702
281030171,-1984,0315,-0261,0018,0020,0023,092.6062,007.4837,009.2074
281035842,-1972,0300,-0255,0011,0013,0024,092.8591,007.3884,009.0050
281041530,-1979,0298,-0262,0009,0010,0032,093.6163,007.2657,008.6126
281047187,-1991,0295,-0255,0007,0010,0030,094.5718,007.4757,008.5653
281052823,-2010,0294,-0262,0015,0007,0028,093.9308,007.1859,008.4197
281058472,-1984,0300,-0252,0026,0013,0021,094.9545,007.3621,008.3150
281064182,-2012,0299,-0261,0029,0011,0018,092.9879,007.1275,008.6373
281069942,-1978,0285,-0257,0030,0005,0018,094.4204,007.3275,008.4324
281075591,-1966,0323,-0257,0025,0008,0019,095.2603,007.3224,008.1735
281081241,-1982,0317,-0227,0016,0015,0016,091.2933,007.3500,009.4810
281086960,-1968,0327,-0250,0010,0020,0015,088.5423,006.3350,009.0383
281092584,-1966,0306,-0229,0006,0023,0018,090.8849,007.2402,009.4859
281098279,-1984,0319,-0220,0002,0026,0019,089.9656,006.4752,008.7656
281103957,-1973,0295,-0266,-0008,0033,0011,087.6907,006.2216,009.1809
281109650,-1980,0282,-0257,-0025,0039,0008,096.2434,007.7809,008.4149
281115294,-1994,0271,-0264,-0029,0036,0007,095.5001,007.2708,008.0705
281120992,-1983,0297,-0280,-0027,0037,0010,097.7105,007.5016,007.7011
281126690,-2002,0294,-0275,-0005,0027,0017,096.3997,008.0074,008.6273
281132307,-1976,0304,-0277,0021,0024,0019,096.3053,007.7136,008.3309
281138053,-1986,0326,-0280,0044,0011,0018,095.4597,007.9094,008.8058
281143775,-1965,0331,-0256,0042,0006,0017,093.7046,007.9165,009.3887
281149454,-1952,0337,-0234,0026,0006,0011,090.6597,007.2370,009.5836
281155127,-1915,0319,-0257,0001,0005,0009,087.8159,006.6660,009.8215
281160680,-1911,0338,-0257,-0008,0012,0005,092.3410,007.5726,009.4408
281166279,-1913,0333,-0245,-0003,0011,0005,090.5096,007.5360,010.0593
281171948,-1905,0306,-0308,-0006,0018,0003,089.6883,007.1665,009.8616
281177571,-1939,0324,-0302,-0006,0032,0009,098.8133,009.1689,009.0889
281183216,-1956,0308,-0296,-0014,0046,0016,095.9793,008.6924,009.5345
281188966,-1977,0298,-0283,-0017,0058,0023,097.3052,008.4855,008.8703
281194702,-1970,0312,-0300,-0025,0060,0032,096.7266,008.0109,008.5432
281200365,-2004,0294,-0296,-0026,0065,0029,097.2169,008.6357,009.0673
281206074,-2017,0283,-0269,-0018,0067,0030,098.6132,008.2937,008.2766
281211792,-2016,0272,-0274,-0016,0068,0027,096.6664,007.4562,007.9643
281217551,-2010,0257,-0255,-0005,0071,0032,098.7283,007.7145,007.6603
281223198,-2015,0258,-0313,-0003,0065,0027,098.0145,007.1321,007.2557
281228859,-2007,0240,-0299,-0003,0061,0030,104.2118,008.9424,007.3094
281234526,-2016,0245,-0320,0023,0071,0029,104.4502,008.3779,006.7750
281240261,-1992,0290,-0323,0063,0077,0038,105.8258,009.0451,006.9550
281246025,-1996,0276,-0327,0125,0088,0045,100.7221,009.1579,008.4683
281251757,-1984,0298,-0344,0171,0089,0058,103.1866,009.2594,007.8105
281257521,-1988,0344,-0324,0190,0083,0066,101.9707,009.8282,008.6524
281263300,-2008,0345,-0365,0192,0082,0082,095.6410,009.0665,009.9885
281269020,-2002,0380,-0398,0201,0087,0096,099.8764,010.3087,009.7457
281274787,-1981,0400,-0386,0199,0096,0114,099.0463,011.1792,010.8897
281280610,-1977,0436,-0381,0213,0099,0118,096.4912,010.8122,011.5145
281286510,-1994,0449,-0381,0234,0093,0123,093.6197,010.6835,012.6033
281292403,-1989,0418,-0389,0248,0076,0124,092.9958,010.5856,012.7320
281298271,-2017,0406,-0378,0257,0070,0123,095.8059,010.9061,011.7866
281304105,-2025,0381,-0366,0260,0075,0129,095.3349,010.3988,011.3700
281310006,-2025,0358,-0354,0268,0086,0126,096.2502,010.0784,010.6028
281315876,-1990,0331,-0370,0278,0083,0114,096.9200,009.7742,009.9841
281321647,-1989,0310,-0386,0281,0073,0097,100.5309,010.5075,009.3925
281327443,-1965,0310,-0367,0283,0054,0082,103.2783,010.9291,008.7986
281333270,-1959,0286,-0367,0275,0039,0068,101.1822,010.4046,008.9951
281339065,-1907,0313,-0414,0261,0030,0050,103.9077,010.5338,008.2011
281344794,-1918,0286,-0374,0252,0042,0040,104.3003,012.2964,009.4428