Time Stamp,Accel x,Accel y,Accel z,Gyro x,Gyro y,Gyro z,Yaw (Deg),Pitch (Deg),Roll (Deg)
209435016,-1346,0159,-1489,-0020,0009,-0051,091.1997,047.7764,007.0216
209440760,-1335,0169,-1475,-0018,0013,-0043,091.3987,047.6737,006.6932
209446591,-1314,0175,-1489,-0016,0014,-0035,091.0436,047.6139,007.2964
209452377,-1319,0190,-1479,-0013,0012,-0025,090.9852,048.4272,007.6325
209458149,-1319,0208,-1490,-0005,0010,-0017,090.5414,047.9154,008.2725
209463869,-1306,0224,-1484,0003,0015,-0011,090.1365,048.1631,009.0628
209469609,-1290,0221,-1488,0004,0013,-0001,089.7265,048.2443,009.8239
209475311,-1293,0219,-1472,0004,0008,0003,089.8853,048.7087,009.7144
209480916,-1284,0232,-1504,0008,0000,0005,089.8638,048.2657,009.6092
209486457,-1296,0257,-1499,0007,0000,0004,089.6515,049.1291,010.3108
209492108,-1287,0241,-1482,0009,-0002,0003,088.9840,048.5335,011.3271
209497797,-1298,0246,-1483,0009,-0004,0005,089.4265,048.5294,010.5370
209503486,-1296,0236,-1508,0015,-0001,0001,089.2604,048.2709,010.7515
209509180,-1318,0221,-1487,0021,-0002,-0001,089.6784,048.9376,010.2524
209514938,-1345,0228,-1492,0029,-0009,0001,089.9519,047.9190,009.4100
209520620,-1352,0201,-1494,0033,-0015,0000,089.7384,047.5070,009.6355
209526230,-1372,0211,-1524,0036,-0017,0006,090.5182,047.5350,008.3202
209531990,-1365,0202,-1493,0039,-0016,0007,090.2618,047.6743,008.7815
209537753,-1366,0175,-1502,0039,-0004,0013,090.4155,047.1935,008.3644
209543484,-1361,0169,-1481,0038,0002,0018,091.1837,047.5127,007.1608
209549254,-1375,0195,-1491,0031,0006,0026,091.1691,047.1510,007.0688
209554991,-1364,0185,-1502,0030,0010,0025,090.4401,047.0151,008.1983
209560735,-1352,0164,-1460,0027,0015,0032,090.8419,047.5587,007.6674
209566554,-1328,0172,-1499,0024,0018,0035,091.2471,046.9046,006.8135
209572351,-1330,0185,-1456,0024,0021,0033,091.0620,048.4489,007.4871
209578162,-1338,0186,-1483,0023,0021,0032,090.5566,047.1849,007.9766
209584009,-1319,0200,-1475,0025,0021,0031,090.6805,047.7538,007.9108
209589757,-1300,0192,-1472,0022,0025,0024,090.2199,047.8897,008.7225
209595540,-1324,0189,-1469,0020,0023,0022,090.4871,048.2856,008.3706
209601314,-1294,0214,-1486,0019,0017,0018,090.5259,047.6083,008.0981
209607140,-1274,0207,-1459,0016,0017,0016,089.8653,048.7049,009.5879
209613008,-1327,0211,-1470,0019,0014,0011,090.0402,048.4838,009.2014
209618807,-1291,0205,-1504,0017,0010,0010,089.9551,047.4440,009.0145
209624548,-1302,0194,-1508,0021,0012,0008,090.2758,049.2412,009.0234
209630309,-1319,0182,-1480,0023,0005,0010,090.5464,048.8230,008.3938
209636071,-1296,0201,-1471,0023,0000,0004,090.7420,047.9143,007.7852
209641649,-1318,0184,-1490,0025,0003,0006,090.1676,048.3008,008.8862
209647320,-1315,0184,-1516,0026,0000,0007,090.7587,048.2139,007.8226
209652918,-1313,0208,-1518,0023,-0005,0007,090.7646,048.8438,007.9792
209658605,-1303,0201,-1504,0020,-0005,0014,090.1067,048.7732,009.1325
209664289,-1318,0192,-1491,0021,-0011,0016,090.3266,048.7487,008.7208
209670124,-1314,0217,-1490,0029,-0009,0020,090.4970,048.1314,008.2195
209675870,-1333,0220,-1504,0034,-0003,0022,089.7410,048.2115,009.5474
209681599,-1343,0207,-1478,0035,-0001,0023,089.8160,048.0409,009.3470
209687310,-1327,0218,-1522,0041,-0004,0025,090.0595,047.3142,008.6836
209693056,-1351,0223,-1467,0044,-0002,0025,089.8805,048.7072,009.4203
209698769,-1348,0218,-1474,0044,0001,0030,089.5242,046.7612,009.3649
209704510,-1325,0231,-1502,0046,0004,0031,089.7357,047.2466,009.1573
209710259,-1316,0220,-1462,0047,0011,0033,089.4399,048.2925,010.0006
209716126,-1312,0221,-1465,0048,0009,0037,089.6072,047.5258,009.4246
209721847,-1310,0222,-1483,0049,0007,0042,089.5527,047.7775,009.5773
209727630,-1292,0226,-1503,0049,0005,0050,089.5873,048.1909,009.6278
209733344,-1293,0212,-1500,0053,-0001,0055,089.5321,048.9833,009.9674
209739044,-1294,0212,-1500,0056,-0004,0060,089.8840,048.8406,009.2334
209744724,-1317,0211,-1494,0062,-0009,0070,089.8079,048.8328,009.3171
209750434,-1301,0201,-1487,0068,-0014,0076,089.7860,048.1538,009.0775
209756207,-1288,0196,-1505,0074,-0017,0083,090.0020,048.5145,008.7467
209762040,-1304,0191,-1494,0075,-0021,0090,090.1357,049.2003,008.6432
209767797,-1302,0190,-1497,0075,-0024,0090,090.1676,048.4887,008.2982
209773534,-1316,0197,-1505,0070,-0026,0097,090.1519,048.6983,008.3136
209779313,-1316,0193,-1463,0065,-0024,0096,089.9387,048.4768,008.5557
209785072,-1325,0200,-1469,0061,-0027,0095,089.8826,047.6304,008.3352
209790803,-1336,0201,-1482,0058,-0022,0095,089.6696,047.6150,008.6308
209796580,-1317,0185,-1500,0060,-0019,0089,089.6839,047.6389,008.5574
209802318,-1339,0181,-1494,0061,-0014,0085,090.1738,048.5510,007.9193
209808113,-1324,0169,-1487,0056,-0015,0078,090.1563,047.7656,007.6774
209813911,-1308,0182,-1477,0058,-0012,0071,090.4524,048.1297,007.2161
209819689,-1324,0169,-1497,0057,-0016,0060,089.9737,048.1962,008.0118
209825479,-1339,0164,-1483,0056,-0017,0054,090.4537,048.2794,007.1599
209831289,-1319,0173,-1472,0057,-0014,0047,090.4522,047.6106,006.9537
209837109,-1366,0158,-1502,0050,-0015,0038,090.1304,047.9222,007.5421
209842881,-1341,0156,-1486,0052,-0010,0036,090.6816,047.4642,006.4742
209848665,-1331,0157,-1458,0047,-0016,0029,090.5978,047.7754,006.6555
209854496,-1329,0164,-1497,0042,-0016,0023,090.4775,047.3503,006.7311
209860293,-1336,0150,-1482,0037,-0014,0017,090.3990,048.3119,007.0798
209866069,-1333,0152,-1480,0034,-0010,0015,090.7621,047.6984,006.3026
209871817,-1324,0158,-1495,0030,-0007,0008,090.6349,047.8134,006.5293
209877483,-1333,0165,-1475,0029,-0010,0003,090.5206,048.3214,006.8358
209883182,-1326,0177,-1472,0022,-0006,0001,090.2705,047.5887,007.0783
209888880,-1330,0160,-1499,0020,-0004,0001,089.9464,047.7441,007.6638
209894517,-1312,0158,-1492,0021,-0003,-0004,090.5617,048.2645,006.7510
209900236,-1324,0153,-1484,0019,-0001,0000,090.5184,048.4877,006.8787
209905837,-1306,0167,-1507,0020,-0003,0000,090.6395,048.0195,006.5573
209911369,-1291,0181,-1472,0022,0001,-0003,090.3064,048.9461,007.3662
209917043,-1305,0183,-1468,0021,-0002,-0001,089.8599,048.4283,008.0206
209922708,-1323,0196,-1479,0024,-0001,0002,089.8270,048.0508,007.9742
209928373,-1327,0195,-1494,0020,-0005,0001,089.5026,047.8469,008.4776
209934017,-1313,0206,-1500,0024,-0006,-0001,089.6326,048.1043,008.3380
209939654,-1323,0207,-1500,0020,-0008,0006,089.3324,048.4926,008.9896
209945277,-1333,0219,-1518,0022,-0011,0005,089.3482,048.2035,008.8776
209951029,-1322,0209,-1490,0021,-0007,0009,089.0871,048.3410,009.3886
209956720,-1336,0213,-1481,0024,-0005,0007,089.2963,048.0220,008.9267
209962409,-1338,0209,-1490,0026,-0003,0008,089.1223,047.5244,009.0716
209968074,-1340,0189,-1488,0029,-0004,0009,089.2985,047.7512,008.8486
209973755,-1364,0177,-1497,0032,-0001,0010,089.8383,047.7028,007.9175
209979474,-1337,0185,-1489,0033,0000,0008,090.1393,047.3826,007.3242
209985091,-1346,0194,-1462,0034,0003,0008,089.8442,047.8552,007.9398
209990762,-1375,0182,-1495,0032,0005,0007,089.5200,046.9732,008.2264
209996454,-1338,0190,-1491,0029,0008,0003,090.0274,047.1624,007.4535
210002146,-1372,0188,-1459,0022,0015,0000,089.7250,047.8997,008.1665
210007758,-1364,0194,-1483,0022,0018,0000,089.7108,046.3528,007.7631
210013415,-1354,0190,-1493,0018,0018,0001,089.6323,047.2019,008.1354
210019174,-1341,0180,-1468,0021,0017,0003,089.8005,047.5607,007.9646
210024889,-1330,0196,-1480,0025,0018,0002,089.9809,047.3033,007.5979
210030614,-1338,0177,-1469,0026,0014,0009,089.5293,047.8140,008.4996
210036380,-1346,0179,-1492,0033,0014,0009,090.1104,047.3683,007.3972
210042129,-1321,0202,-1456,0036,0010,0013,090.0445,047.7392,007.5954
210047993,-1303,0192,-1468,0033,0010,0012,089.2505,047.4131,008.8303
210053705,-1304,0194,-1486,0034,0010,0016,089.6750,048.1695,008.3327
210059486,-1296,0195,-1450,0029,0007,0019,089.6359,048.4510,008.4795
210065247,-1299,0197,-1500,0027,0004,0015,089.4833,047.8468,008.5609
210070986,-1288,0225,-1526,0022,0004,0016,089.6272,048.9178,008.6346
210076732,-1303,0201,-1496,0022,0003,0011,088.9383,049.4756,010.1017
210082501,-1294,0208,-1481,0023,0000,0007,089.5877,048.4873,008.5931
210088094,-1339,0208,-1476,0026,-0004,0006,089.2640,048.4846,009.1710
210093774,-1327,0200,-1483,0028,-0007,0007,089.2750,047.3098,008.7838
210099407,-1339,0197,-1486,0026,-0007,0004,089.5349,047.9203,008.5368
210105091,-1329,0203,-1453,0023,-0006,0003,089.6013,047.6322,008.3437
210110751,-1346,0195,-1497,0022,-0006,0002,089.3029,047.1751,008.7116
210116453,-1335,0183,-1477,0019,-0002,-0001,089.7419,047.8116,008.1759
210122143,-1338,0179,-1505,0019,-0001,0000,089.9604,047.5924,007.7520
210127709,-1343,0202,-1471,0015,0000,-0004,090.1433,048.1565,007.6022
210133280,-1350,0192,-1451,0015,0007,-0006,089.3661,047.1891,008.6473
210138972,-1361,0192,-1443,0011,0010,-0001,089.6708,046.7262,008.0294
210144671,-1350,0185,-1465,0017,0010,-0003,089.6122,046.3484,008.0265
210150374,-1326,0191,-1474,0016,0010,-0003,089.9243,047.1774,007.7663
210156113,-1363,0194,-1503,0019,0006,-0005,089.7449,047.8056,008.2523
210161786,-1354,0188,-1468,0023,0006,-0004,089.7964,047.4736,008.0777
210167440,-1339,0196,-1466,0020,0004,-0008,089.8405,046.9817,007.8769
210173117,-1328,0195,-1479,0019,0006,-0004,089.5984,047.3248,008.3821
210178792,-1305,0196,-1462,0019,0006,-0002,089.7149,047.8310,008.3454
210184451,-1321,0213,-1474,0015,0005,0000,089.6156,047.9322,008.5559
210189976,-1291,0196,-1499,0015,0007,0000,089.2069,047.7480,009.2113
210195535,-1316,0214,-1482,0009,0003,0001,089.8105,049.0572,008.5725
210201158,-1313,0199,-1483,0007,0006,0001,089.2014,047.9114,009.3053
210206795,-1327,0199,-1468,0011,0003,0004,089.6979,048.1771,008.5412
210212495,-1321,0189,-1477,0014,0004,0001,089.5924,047.4953,008.5263
210218188,-1329,0200,-1470,0015,0005,0001,089.9327,047.9483,008.0919
210223795,-1340,0201,-1469,0024,0002,0000,089.5609,047.5183,008.6005
210229358,-1348,0197,-1471,0022,0004,-0005,089.5749,047.2840,008.5167
210235073,-1365,0176,-1480,0022,0002,-0004,089.7048,047.1780,008.2800
210240747,-1375,0188,-1475,0022,0004,-0003,090.3320,047.0611,007.2287
210246407,-1355,0180,-1475,0018,0008,-0001,089.8926,046.7042,007.8456
210252090,-1354,0189,-1469,0019,0004,0002,090.1810,047.2365,007.5261
210257788,-1339,0204,-1442,0021,0003,0006,089.8560,047.0269,008.0004
210263440,-1341,0197,-1489,0024,0006,0006,089.3674,046.7668,008.7201
210269086,-1359,0219,-1438,0029,0003,0007,089.8072,047.8046,008.3037
210274767,-1339,0212,-1466,0030,0002,0008,088.9118,046.0835,009.2351
210280444,-1337,0206,-1488,0036,0000,0009,089.3458,047.3971,008.9548
210286007,-1345,0208,-1495,0035,-0002,0012,089.5424,047.7541,008.7316
210291719,-1329,0204,-1471,0036,-0003,0014,089.4881,047.6701,008.7929
210297476,-1321,0200,-1500,0037,0001,0018,089.5094,047.5514,008.7133
210303125,-1314,0201,-1469,0038,0001,0024,089.7240,048.4031,008.5928
210308840,-1314,0185,-1492,0043,-0002,0024,089.5445,047.7943,008.7030
210314580,-1303,0190,-1499,0038,0001,0028,090.1012,048.4266,007.9099
210320321,-1317,0217,-1472,0037,0001,0031,089.8903,048.7359,008.3526
210326076,-1321,0210,-1487,0033,0000,0037,089.0467,047.6807,009.4782
210331696,-1346,0212,-1488,0033,0001,0040,089.4004,048.0659,008.9817
210337418,-1355,0225,-1487,0030,-0001,0038,089.2938,047.4418,008.9533
210343120,-1359,0190,-1464,0035,-0002,0036,088.9276,047.2424,009.4906
210348834,-1354,0195,-1474,0035,-0004,0034,089.8935,046.7921,007.7590
210354583,-1377,0206,-1463,0039,-0005,0030,089.6424,047.1789,008.2596
210360307,-1352,0195,-1460,0040,-0006,0026,089.3041,046.3143,008.5364
210366021,-1360,0183,-1463,0037,-0005,0024,089.6587,046.9843,008.1559
210371773,-1335,0156,-1475,0035,-0004,0021,089.9712,046.8029,007.5902
210377495,-1352,0180,-1500,0033,0000,0020,090.7596,047.7761,006.5259
210383043,-1353,0156,-1466,0029,0002,0018,090.0530,047.7084,007.6820
210388814,-1354,0165,-1492,0021,0005,0017,090.7103,047.0128,006.4205
210394557,-1334,0167,-1488,0019,0007,0017,090.4246,047.6396,007.0273
210400314,-1343,0158,-1456,0020,0010,0014,090.3898,047.9382,007.1541
210406060,-1347,0169,-1462,0023,0010,0011,090.5502,047.0153,006.6580
210411807,-1336,0174,-1450,0021,0015,0006,090.2191,047.1348,007.2202
210417556,-1347,0181,-1441,0016,0013,0002,090.0791,047.0968,007.4423
210423327,-1340,0177,-1494,0011,0012,-0002,089.8608,046.6229,007.6771
210429061,-1324,0177,-1474,0010,0014,-0007,090.2081,048.0503,007.4989
210434780,-1312,0178,-1486,0003,0013,-0008,090.0984,047.7843,007.6295
210440472,-1334,0200,-1503,0004,0012,-0010,090.1357,048.3611,007.7383
210446142,-1313,0189,-1482,0005,0008,-0010,089.5873,048.0550,008.6197
210451792,-1322,0191,-1477,0010,0008,-0008,089.8944,048.1762,008.1406
210457450,-1337,0188,-1471,0011,0005,-0008,089.7949,047.8352,008.2272
210463151,-1338,0205,-1479,0008,0010,-0003,089.8783,047.3989,007.9757
210468811,-1339,0205,-1481,0011,0006,-0004,089.4164,047.5464,008.8059
210474495,-1340,0213,-1482,0008,0010,0000,089.4937,047.5488,008.6925
210480062,-1324,0210,-1492,0006,0004,-0005,089.2758,047.5156,009.0687
210485672,-1336,0221,-1480,0003,0005,-0001,089.4354,048.1219,009.0087
210491294,-1371,0197,-1471,0001,0006,0002,089.0706,047.4696,009.4415
210496908,-1363,0211,-1438,0005,0008,0001,089.7706,046.6411,008.0528
210502520,-1376,0214,-1488,0002,0009,0006,089.1601,046.1428,008.8840
210508148,-1379,0202,-1457,0010,0011,0005,089.3606,046.9785,008.8378
210513886,-1383,0201,-1466,0012,0009,0011,089.5677,046.1756,008.2732
210519625,-1340,0200,-1487,0017,0011,0010,089.6131,046.3927,008.2705
210525374,-1364,0197,-1455,0022,0009,0011,089.7241,047.8588,008.5243
210531145,-1361,0212,-1474,0019,0003,0013,089.6681,046.3692,008.1792
210536897,-1337,0172,-1453,0023,0004,0009,089.3113,047.0180,008.9526
210542568,-1319,0191,-1475,0026,0002,0009,090.4311,047.1522,007.1587
210548260,-1301,0166,-1464,0028,-0001,0015,089.8340,047.9866,008.3768
210553962,-1293,0187,-1478,0028,-0001,0014,090.5536,048.1491,007.1771
210559703,-1277,0174,-1471,0029,-0001,0021,089.9417,048.5574,008.3419
210565467,-1279,0184,-1487,0032,-0004,0020,090.3256,048.7860,007.7110
210571199,-1292,0195,-1457,0031,-0008,0030,090.0602,049.0219,008.2356
210576921,-1278,0188,-1501,0030,-0016,0035,089.6744,048.0443,008.6084
210582662,-1308,0186,-1513,0032,-0011,0039,090.0442,049.4319,008.3425
210588478,-1298,0176,-1484,0036,-0009,0043,090.0784,048.7773,008.0612
210594207,-1340,0206,-1466,0036,-0010,0051,090.2289,048.5328,007.6936
210600002,-1351,0199,-1477,0039,-0012,0048,089.2540,047.0457,008.8869
210605795,-1359,0212,-1455,0042,-0017,0049,089.6312,047.2621,008.3060
210611611,-1385,0213,-1474,0038,-0013,0048,089.0733,046.4976,008.9585
210617376,-1377,0222,-1472,0044,-0006,0041,089.2018,046.4339,008.7165
210623116,-1378,0206,-1475,0039,-0005,0039,088.9008,046.5491,009.2206
210628876,-1373,0208,-1496,0042,0003,0034,089.4180,046.6372,008.4055
210634606,-1358,0206,-1471,0043,0010,0026,089.3701,047.1914,008.6384
210640372,-1345,0187,-1501,0042,0014,0023,089.3269,046.9290,008.6204
210646147,-1345,0184,-1464,0042,0020,0021,089.9972,048.0072,007.8026
210651904,-1334,0172,-1517,0040,0020,0015,089.8451,047.0477,007.7826
210657622,-1317,0155,-1499,0040,0019,0012,090.3879,048.6375,007.2757
210663410,-1302,0165,-1502,0034,0017,0011,090.7327,048.4811,006.6202
210669226,-1306,0174,-1500,0031,0017,0012,090.3919,048.9123,007.3153
210674982,-1306,0156,-1478,0028,0017,0009,090.1795,048.6752,007.6247
210680721,-1290,0178,-1503,0025,0013,0009,090.6366,048.2949,006.7232
210686468,-1304,0187,-1478,0025,0015,0007,090.0399,049.2029,008.0143
210692192,-1324,0180,-1470,0021,0009,0005,089.7897,048.1935,008.1733
210697903,-1333,0203,-1490,0016,0014,0004,089.9895,047.6752,007.6934
210703639,-1341,0201,-1477,0014,0017,0000,089.3804,047.8810,008.7984
210709263,-1357,0191,-1491,0012,0018,-0004,089.4839,047.3943,008.4916
210715007,-1343,0185,-1478,0012,0017,-0002,089.8230,047.4152,007.9471
210720734,-1361,0199,-1429,0008,0017,-0005,089.9137,047.4783,007.8284
210726422,-1353,0203,-1459,0009,0017,-0009,089.3220,045.9606,008.3618
210732098,-1363,0204,-1460,0008,0018,-0008,089.4007,046.9673,008.5569
210737831,-1342,0216,-1464,0009,0019,-0008,089.3784,046.6069,008.5046
210743544,-1339,0193,-1484,0014,0022,-0005,089.0555,047.2000,009.2351
210749272,-1336,0198,-1482,0011,0021,-0003,089.8658,047.7116,008.0504
210755041,-1319,0210,-1451,0002,0018,0001,089.6023,047.6462,008.4924
210760710,-1340,0206,-1468,0001,0016,0003,089.1969,047.3455,009.0988
210766403,-1329,0197,-1480,0000,0011,0000,089.4354,047.2629,008.6966
210771860,-1310,0214,-1501,0000,0016,0000,089.7144,047.8127,008.4116
210777330,-1324,0200,-1476,0003,0016,-0001,089.3148,048.5803,009.3694
210782967,-1323,0204,-1487,0005,0012,-0001,089.6574,047.6975,008.5113
210788657,-1322,0191,-1469,0005,0009,0000,089.5573,048.0442,008.8048
210794176,-1326,0214,-1481,0003,0009,-0005,089.8718,047.6910,008.1787
210799839,-1322,0182,-1487,0006,0004,-0004,089.2430,047.8007,009.3004
210805460,-1323,0211,-1499,0008,0001,-0005,090.2635,048.1216,007.6571
210811091,-1316,0202,-1445,0011,0004,-0005,089.3802,048.2149,009.2313
210816811,-1326,0192,-1494,0012,0004,-0006,089.5344,047.2709,008.6865
210822455,-1331,0208,-1490,0017,0004,-0001,090.0075,048.2207,008.1750
210828146,-1334,0212,-1486,0013,0000,-0002,089.4838,047.8302,008.9712
210833733,-1354,0212,-1470,0016,0001,0000,089.4318,047.7115,009.0342
210839314,-1358,0224,-1489,0014,0002,-0003,089.3826,046.9268,008.8824
210845016,-1363,0205,-1449,0013,0003,0002,089.1308,047.2861,009.4287
210850686,-1333,0205,-1467,0014,0003,-0001,089.5575,046.3195,008.4454
210856341,-1352,0202,-1481,0014,0004,0003,089.5845,047.5422,008.7826
210862026,-1338,0207,-1472,0016,0005,0003,089.7297,047.2551,008.4612
210867675,-1333,0182,-1492,0021,0004,0006,089.5346,047.4050,008.8364
210873367,-1313,0194,-1494,0019,0004,0004,090.3602,048.0283,007.6240
210879049,-1321,0185,-1491,0021,0001,0005,089.9141,048.4239,008.5109
210884723,-1321,0183,-1479,0023,0001,0006,090.2183,048.1446,007.8988
210890401,-1330,0189,-1483,0019,-0004,0004,090.1922,047.9279,007.8833
210896120,-1340,0182,-1503,0023,-0004,0001,090.0384,047.8054,008.1116
210901794,-1322,0190,-1492,0021,-0005,0001,090.3284,048.0385,007.6831
210907474,-1334,0182,-1454,0020,-0003,-0002,090.0286,048.1749,008.2412
210913140,-1321,0188,-1464,0018,-0004,0001,090.1590,047.1032,007.7236
210918801,-1319,0170,-1509,0016,-0001,0001,090.0133,047.7036,008.1379
210924473,-1316,0182,-1489,0014,0001,0001,090.6994,048.7262,007.2319
210930162,-1337,0170,-1464,0012,0003,0004,090.2054,048.1945,007.9547
210935814,-1329,0177,-1492,0008,0006,0000,090.5263,047.2753,007.1753
210941335,-1340,0177,-1472,0010,0008,0000,090.3906,048.1373,007.6324
210946909,-1330,0175,-1471,0010,0006,-0003,090.3426,047.3625,007.5129
210952534,-1338,0180,-1484,0011,0006,-0004,090.4065,047.6624,007.4924
210958238,-1341,0201,-1475,0011,0007,-0003,090.3032,047.7068,007.6843
210963907,-1328,0185,-1472,0007,0007,-0008,089.6872,047.3630,008.6308
210969561,-1329,0211,-1469,0011,0006,-0006,090.2220,047.7006,007.8448
210975236,-1346,0192,-1519,0008,0007,-0013,089.4135,047.4803,009.1586
210980913,-1325,0212,-1503,0014,0004,-0014,090.2439,048.2442,007.9854
210986618,-1340,0204,-1467,0015,0007,-0011,089.5366,048.2360,009.2314
210992378,-1351,0200,-1468,0012,0009,-0015,089.7301,047.1268,008.5737
210998055,-1350,0211,-1490,0014,0011,-0013,089.8359,047.0557,008.3947
211003844,-1358,0206,-1479,0014,0018,-0008,089.5979,047.5404,008.9536
211009605,-1342,0202,-1491,0012,0020,-0006,089.7428,047.0596,008.5795
211015291,-1382,0183,-1484,0013,0018,0001,089.8914,047.7757,008.5577
211021040,-1336,0187,-1475,0016,0015,0001,090.3937,046.6725,007.4259
211026792,-1328,0214,-1472,0014,0014,0005,090.1793,047.6918,008.0570
211032538,-1345,0200,-1484,0014,0013,0010,089.4175,047.5593,009.3089
211038279,-1341,0199,-1484,0016,0011,0015,089.9791,047.4890,008.3436
211044076,-1330,0188,-1497,0020,0013,0012,089.9307,047.6000,008.4575
211049826,-1301,0208,-1488,0019,0011,0012,090.3032,048.1700,007.9855
211055604,-1294,0193,-1515,0018,0005,0009,089.6504,048.5132,009.2366
211061291,-1291,0184,-1471,0020,0007,0010,090.2589,049.2784,008.3737
211067016,-1291,0192,-1478,0020,0001,0011,090.2659,048.3705,008.0916
211072760,-1293,0184,-1492,0021,0002,0010,090.0668,048.5648,008.4965
211078507,-1297,0180,-1506,0024,-0006,0009,090.3582,048.8219,008.0474
211084191,-1309,0200,-1465,0027,-0003,0013,090.4748,049.0081,007.8795
211089903,-1322,0182,-1476,0027,-0003,0011,089.7677,047.7831,008.7535
211095661,-1335,0187,-1488,0030,-0002,0015,090.3916,047.8880,007.7127
211101370,-1337,0191,-1503,0030,-0003,0017,090.1979,047.8087,008.0075
211107081,-1343,0200,-1490,0032,-0006,0021,090.1548,048.0815,008.1451
211112792,-1352,0206,-1466,0034,-0003,0019,089.8505,047.5954,008.5088
211118528,-1365,0205,-1487,0034,-0005,0022,089.6113,046.8968,008.6827
211124287,-1376,0186,-1496,0034,-0004,0022,089.7527,047.1548,008.5199
211130025,-1353,0194,-1488,0031,-0003,0023,090.3022,047.1231,007.5981
211135749,-1349,0171,-1496,0029,0002,0022,089.9652,047.4658,008.2378
211141511,-1329,0178,-1487,0031,0003,0018,090.6978,047.7617,007.0781
211147259,-1350,0168,-1481,0024,0002,0022,090.3472,047.9810,007.7149
211153009,-1333,0193,-1479,0027,0005,0015,090.6642,047.3493,007.0087
211158738,-1323,0196,-1475,0025,0007,0010,089.8737,047.7199,008.4222
211164451,-1322,0180,-1470,0024,0008,0008,089.8871,047.8064,008.4254
211170116,-1323,0205,-1482,0027,0013,0005,090.3208,047.7668,007.6772
211175867,-1325,0194,-1478,0024,0013,0006,089.5882,047.9240,008.9727
211181606,-1312,0205,-1463,0027,0010,-0001,090.0007,047.8048,008.2352
211187330,-1312,0202,-1474,0024,0008,-0004,089.5835,047.7632,008.9405
211193038,-1324,0189,-1496,0025,0008,-0003,089.7604,048.0171,008.7238
211198729,-1326,0190,-1469,0026,0007,-0002,090.1956,048.2240,008.0350
211204441,-1334,0172,-1439,0027,0006,0003,090.0101,047.5668,008.1624
211210129,-1324,0180,-1493,0028,0005,0001,090.4348,046.8774,007.2762
211215808,-1325,0182,-1469,0033,0000,0004,090.3496,048.3579,007.8048
211221387,-1314,0168,-1470,0035,-0001,0009,090.2183,047.6188,007.8156
211227041,-1330,0181,-1463,0039,0000,0015,090.6177,048.0049,007.2270
211232722,-1318,0190,-1517,0040,-0001,0017,090.1718,047.4004,007.7986
211238428,-1338,0197,-1491,0038,0001,0017,090.1454,048.9092,008.2583
211244186,-1322,0201,-1515,0032,0000,0022,089.8475,047.6363,008.3901
211249843,-1321,0182,-1463,0032,0003,0021,089.8579,048.6823,008.6781
211255603,-1339,0204,-1497,0032,-0001,0022,090.1903,047.5360,007.7580
211261356,-1323,0205,-1469,0031,-0001,0023,089.6346,047.9009,008.7937
211267075,-1336,0201,-1481,0031,-0005,0024,089.5681,047.6171,008.8100
211272794,-1353,0207,-1465,0034,0001,0025,089.7344,047.6227,008.5199
211278533,-1337,0215,-1511,0035,0006,0028,089.4621,046.8483,008.7236
211284221,-1325,0228,-1486,0036,0009,0024,089.4526,048.3032,009.1917
211289922,-1353,0231,-1468,0040,0005,0026,088.9798,047.7993,009.8369
211295718,-1342,0215,-1455,0041,0003,0020,088.8749,046.7938,009.6630
211301428,-1328,0218,-1487,0045,0002,0025,089.2936,046.9665,009.0254
211307162,-1333,0195,-1439,0045,0004,0017,089.2865,047.9862,009.3610
211312919,-1349,0180,-1474,0045,0003,0013,089.7399,046.7836,008.2220
211318707,-1348,0180,-1482,0044,0004,0020,090.2745,047.3581,007.4938
211324453,-1334,0180,-1476,0041,0005,0016,090.2098,047.4688,007.6154
211330190,-1346,0162,-1483,0045,0006,0016,090.1875,047.6561,007.6865
211335961,-1346,0168,-1463,0038,0005,0021,090.7285,047.5492,006.7386
211341704,-1328,0159,-1486,0040,0008,0021,090.3926,047.1087,007.1614
211347451,-1329,0179,-1476,0035,0008,0021,090.7689,048.1500,006.7716
211353201,-1330,0182,-1486,0033,0004,0027,090.0841,047.6827,007.7932
211358957,-1325,0182,-1474,0031,0004,0026,090.1163,047.9353,007.7936
211364709,-1328,0206,-1477,0035,0001,0029,090.0574,047.7541,007.8257
211370441,-1318,0193,-1502,0032,-0001,0021,089.3732,047.6865,008.9561
211376197,-1306,0197,-1499,0032,-0002,0019,089.9371,048.5390,008.2304
211381953,-1314,0188,-1475,0031,-0002,0016,089.7234,048.6203,008.6268
211387714,-1323,0189,-1494,0034,-0003,0015,089.9155,047.9358,008.0812
211393413,-1333,0205,-1486,0031,-0008,0011,089.9286,048.2114,008.1319
211399149,-1322,0185,-1490,0029,-0012,0012,089.4353,047.7010,008.8227
211404958,-1314,0185,-1472,0024,-0011,0011,090.1052,048.2040,007.8205
211410761,-1315,0207,-1464,0020,-0006,0011,089.9322,047.9264,008.0383
211416457,-1323,0187,-1481,0016,-0005,0007,089.3078,047.6894,009.0374
211422137,-1347,0183,-1478,0007,-0005,0007,090.0166,047.9654,007.9206
211427765,-1345,0180,-1499,0008,-0006,0005,090.0345,047.3183,007.7185
211433406,-1342,0200,-1468,0011,-0009,0001,090.1964,047.8992,007.6104
211439084,-1330,0183,-1478,0013,-0007,-0002,089.4948,047.1610,008.5827
211444784,-1338,0205,-1483,0014,-0006,0001,090.1258,047.8219,007.7265
211450464,-1345,0201,-1469,0017,-0005,-0003,089.4335,047.5743,008.8335
211456137,-1335,0205,-1483,0017,-0005,-0005,089.5927,047.1510,008.4517
211461810,-1347,0210,-1493,0021,-0005,-0001,089.5179,047.7366,008.7634
211467493,-1341,0206,-1486,0022,-0001,-0003,089.4335,047.5762,008.8669
211473173,-1363,0184,-1476,0025,-0001,0001,089.5348,047.5997,008.7101
211478834,-1361,0208,-1495,0030,-0001,-0004,090.1186,046.9471,007.5623
211484492,-1334,0219,-1493,0027,0005,0001,089.4364,047.3994,008.8167
211490178,-1331,0223,-1465,0024,0008,0001,089.2006,047.8953,009.3867
211495832,-1362,0207,-1471,0025,0008,0004,089.0076,047.2842,009.5208
211501487,-1349,0205,-1484,0021,0007,0002,089.5228,046.8245,008.5366
211507178,-1339,0202,-1486,0020,0010,0007,089.5751,047.4773,008.6544
211512872,-1336,0221,-1480,0022,0007,0007,089.6659,047.6777,008.5669
211518551,-1327,0215,-1483,0019,0004,0008,089.0890,047.5183,009.5007
211524234,-1315,0208,-1472,0021,0005,0008,089.3562,047.8432,009.1605
211529927,-1325,0214,-1458,0019,0004,0006,089.4782,047.8696,008.9678
211535669,-1329,0206,-1470,0019,0002,0012,089.2385,047.3060,009.1986
211541411,-1325,0182,-1465,0017,-0002,0013,089.5531,047.5697,008.7596
211547177,-1312,0199,-1491,0022,-0004,0016,090.1839,047.6012,007.7051
211552933,-1324,0185,-1487,0025,-0003,0020,089.7011,048.4331,008.7693
211558660,-1331,0190,-1479,0026,-0005,0021,090.1525,047.9795,007.8428
211564423,-1357,0196,-1457,0027,-0003,0028,089.9028,047.6818,008.1692
211570166,-1349,0190,-1478,0032,-0001,0029,089.6694,046.6037,008.2276
211575908,-1343,0197,-1477,0032,0002,0033,089.9528,047.4361,007.9890
211581657,-1346,0200,-1490,0033,0002,0037,089.6891,047.4079,008.4022
211587371,-1358,0199,-1490,0034,0002,0038,089.6790,047.6147,008.4634
211593127,-1350,0204,-1447,0034,0002,0037,089.6978,047.3095,008.3247
211598876,-1343,0215,-1496,0034,0005,0038,089.3659,046.5783,008.6314
211604649,-1360,0201,-1483,0036,0009,0036,089.2817,047.8987,009.1732
211610397,-1337,0201,-1483,0034,0013,0033,089.6344,047.0737,008.3144
211616214,-1337,0198,-1482,0035,0016,0026,089.5822,047.7398,008.5901
211622026,-1329,0209,-1468,0037,0016,0026,089.6677,047.6186,008.3976
211627834,-1350,0188,-1490,0037,0019,0018,089.2740,047.4798,009.0124
211633667,-1345,0208,-1482,0046,0019,0013,090.0352,047.5595,007.7504
211639489,-1337,0193,-1502,0046,0020,0001,089.2977,047.4194,008.9397
211645180,-1347,0192,-1493,0049,0022,0000,089.9123,048.1166,008.1010
211650813,-1321,0203,-1462,0044,0019,-0004,089.8269,047.6068,008.0988
211656543,-1331,0186,-1444,0042,0019,-0006,089.4081,047.5643,008.7938
211662275,-1341,0182,-1482,0038,0017,-0010,089.8754,047.0079,007.8627
211668049,-1327,0174,-1487,0037,0020,-0012,090.0947,047.6936,007.6923
211673807,-1303,0176,-1487,0029,0022,-0010,090.3131,048.0624,007.4246
211679639,-1311,0174,-1475,0025,0020,-0012,090.2262,048.5830,007.7217
211685401,-1316,0157,-1480,0021,0011,-0017,090.2616,048.0642,007.5313
211691240,-1312,0174,-1484,0013,0011,-0015,090.7734,048.1650,006.6908
211697064,-1318,0170,-1484,0009,0011,-0018,090.2275,048.2836,007.6753
211702834,-1323,0180,-1489,0006,0010,-0017,090.4314,048.1335,007.3005
211708542,-1324,0170,-1457,0003,0006,-0018,090.1433,048.1090,007.8076
211714236,-1312,0182,-1477,0003,0004,-0020,090.3696,047.4428,007.2680
211719899,-1317,0192,-1482,0001,0002,-0015,090.0838,048.1824,007.9680
211725545,-1339,0175,-1503,0004,0005,-0015,089.8651,048.0556,008.3291
211731172,-1336,0201,-1471,0004,0006,-0007,090.4452,048.0559,007.3467
211736807,-1342,0227,-1478,0011,0010,-0009,089.5387,047.3572,008.6916
211742549,-1340,0218,-1486,0009,0009,-0007,088.9310,047.3536,009.7298
211748187,-1343,0226,-1481,0006,0003,-0006,089.3196,047.6061,009.1798
211753795,-1359,0214,-1478,0009,0006,-0008,089.0425,047.3702,009.5919
211759407,-1350,0229,-1497,0008,0009,-0009,089.4152,047.0132,008.8782
211765050,-1346,0211,-1488,0014,0010,-0007,089.0445,047.6107,009.7134
211770764,-1346,0208,-1477,0013,0011,-0008,089.5746,047.5067,008.8006
211776512,-1338,0229,-1486,0015,0014,-0008,089.5577,047.2914,008.7780
211782239,-1339,0219,-1492,0019,0010,-0005,089.0020,047.6264,009.8406
211787950,-1328,0191,-1490,0025,0008,-0003,089.3988,047.7253,009.2083
211793613,-1338,0201,-1469,0026,0010,0000,090.1365,048.0309,008.0425
211799203,-1364,0171,-1482,0028,0012,0005,089.6805,047.2793,008.5912
211804920,-1359,0182,-1480,0027,0012,0008,090.6493,047.1315,006.9573
211810680,-1358,0173,-1478,0028,0012,0014,090.1835,047.1920,007.7223
211816484,-1341,0191,-1489,0031,0012,0014,090.5045,047.1909,007.1871
211822283,-1360,0186,-1479,0032,0009,0017,089.9548,047.7854,008.2517
211828063,-1355,0189,-1479,0033,0012,0021,090.1397,047.0439,007.7241
211833860,-1350,0198,-1467,0033,0019,0023,090.0155,047.2595,007.9745
211839680,-1355,0201,-1468,0029,0021,0026,089.7088,047.0460,008.4066
211845479,-1333,0203,-1486,0029,0023,0027,089.6660,046.9735,008.4468
211851279,-1342,0199,-1455,0034,0024,0026,089.6813,047.9165,008.6966
211857088,-1340,0194,-1479,0029,0023,0023,089.6667,046.8836,008.4032
211862903,-1324,0197,-1460,0029,0023,0025,089.9102,047.6369,008.2133
211868689,-1345,0170,-1483,0032,0028,0028,089.7051,047.4700,008.4972
211874476,-1333,0175,-1467,0037,0026,0026,090.6075,047.5850,007.0066
211880284,-1328,0186,-1441,0039,0027,0029,090.2539,047.4875,007.5476
211886139,-1333,0172,-1459,0038,0021,0031,089.8748,047.0134,008.0220
211891927,-1326,0179,-1474,0044,0013,0026,090.3904,047.3914,007.2595
211897772,-1330,0193,-1464,0037,0014,0028,090.1502,047.8264,007.7566
211903602,-1322,0179,-1496,0031,0012,0027,089.7285,047.3933,008.3288
211909425,-1339,0202,-1479,0027,0008,0025,090.3155,048.4220,007.6061
211915164,-1329,0188,-1488,0021,0006,0018,089.4931,047.3962,008.7107
211920892,-1333,0198,-1475,0018,0000,0011,090.0507,048.0227,007.9533
211926593,-1327,0219,-1481,0017,-0003,0013,089.6328,047.5170,008.5157
211932342,-1325,0208,-1489,0017,-0005,0008,089.1061,047.7825,009.5026
211938065,-1331,0190,-1468,0019,-0009,0003,089.5420,048.0072,008.8343
211943751,-1319,0205,-1503,0025,-0008,-0006,089.9199,047.4471,008.0340
211949379,-1323,0210,-1476,0024,-0011,-0009,089.5875,048.5026,008.9306
211955119,-1334,0204,-1491,0025,-0010,-0014,089.3932,047.6699,009.0181
211960876,-1350,0196,-1496,0028,-0012,-0015,089.6626,047.8665,008.6324
211966625,-1342,0186,-1488,0026,-0007,-0014,089.8776,047.5993,008.1991
211972375,-1358,0193,-1477,0022,-0005,-0016,090.1151,047.6845,007.8349
211978124,-1350,0189,-1474,0017,0001,-0015,089.8443,047.0347,008.1138
211983863,-1352,0178,-1493,0007,0005,-0013,089.9968,047.2603,007.9451
211989584,-1362,0165,-1489,0006,0010,-0013,090.3729,047.6325,007.4372
211995342,-1357,0169,-1464,0004,0012,-0016,090.6956,047.3003,006.8343
212001067,-1337,0160,-1460,0002,0014,-0010,090.4560,046.9010,007.1360
212006786,-1337,0172,-1475,0000,0019,-0009,090.7488,047.3656,006.7868
212012380,-1334,0187,-1435,-0002,0023,-0009,090.4228,047.6007,007.3983
212018063,-1312,0206,-1493,0000,0020,-0013,089.9110,046.7508,008.0232
212023678,-1333,0202,-1479,-0001,0021,-0015,089.6402,048.5649,009.0523
212029407,-1346,0198,-1472,0002,0015,-0014,089.7518,047.5226,008.5588
212035145,-1326,0193,-1486,-0001,0015,-0020,089.8443,047.2138,008.3393
212040838,-1313,0210,-1480,0002,0014,-0017,090.0463,048.0640,008.2704
212046575,-1302,0217,-1460,0004,0010,-0021,089.5295,048.0572,009.1882
212052289,-1314,0193,-1484,0011,0007,-0018,089.3385,047.8635,009.4793
212058056,-1319,0213,-1483,0010,0003,-0018,090.1585,048.2091,008.1892
212063766,-1285,0213,-1488,0006,0000,-0022,089.4855,047.9442,009.2971
212069320,-1311,0201,-1497,0006,0003,-0019,089.6053,048.8660,009.4161
212074976,-1326,0203,-1477,0004,0004,-0015,089.9759,048.4012,008.6266
212080621,-1345,0200,-1478,0008,0005,-0006,089.8057,047.6736,008.7118
212086216,-1350,0180,-1486,0008,0003,0000,089.9205,047.3465,008.4311
212091703,-1364,0177,-1511,0013,0006,0010,090.4936,047.5018,007.5226
212097428,-1375,0204,-1490,0018,0010,0014,090.6067,047.7080,007.3809
212103193,-1388,0189,-1446,0023,0010,0024,089.7404,046.8950,008.5721
212108926,-1377,0221,-1465,0027,0010,0027,090.1141,045.7808,007.6564
212114740,-1381,0214,-1470,0029,0010,0030,089.1579,046.5042,009.3562
212120565,-1346,0220,-1476,0026,0006,0030,089.5302,046.4356,008.7339
212126302,-1329,0221,-1503,0025,0007,0030,089.3198,047.3818,009.3738
212131998,-1334,0213,-1477,0025,0008,0027,089.4333,048.2258,009.4559
212137725,-1312,0226,-1512,0027,0010,0026,089.5352,047.4583,009.0240
212143568,-1317,0215,-1484,0025,0009,0024,089.2904,048.8369,009.9120
212149272,-1326,0194,-1495,0031,0007,0020,089.5208,047.9343,009.1931
212154987,-1319,0196,-1493,0028,0007,0021,090.1275,048.1492,008.2025
212160761,-1318,0179,-1490,0029,0005,0021,089.9699,048.2376,008.4915
212166560,-1302,0169,-1517,0029,0002,0025,090.4639,048.2397,007.6190
212172276,-1290,0176,-1499,0032,0007,0027,090.7469,049.2527,007.3632
212178064,-1313,0178,-1487,0034,0000,0024,090.4431,048.9875,007.8207
212183689,-1311,0186,-1463,0032,0001,0025,090.3753,048.2191,007.7107
212189418,-1326,0182,-1480,0035,-0002,0024,090.0663,047.8096,008.1087
212195148,-1321,0175,-1500,0031,-0005,0022,090.2660,047.8757,007.7741
212200861,-1314,0173,-1491,0031,-0005,0023,090.4974,048.4477,007.5130
212206621,-1317,0166,-1471,0027,-0004,0019,090.4819,048.3460,007.4987
212212367,-1328,0180,-1496,0019,-0012,0013,090.6101,047.8788,007.1496
212218152,-1352,0165,-1458,0019,-0010,0014,090.2653,048.1750,007.8092
212223939,-1357,0166,-1464,0017,-0008,0014,090.6225,046.7731,006.8490
212229673,-1343,0181,-1457,0016,-0005,0013,090.5582,046.9778,006.9953
212235458,-1322,0178,-1465,0017,-0004,0010,090.0925,047.0784,007.7725
212241195,-1347,0173,-1487,0020,0003,0010,090.2715,047.7483,007.6556
212246895,-1345,0180,-1503,0023,0002,0005,090.4705,047.5683,007.2717
212252570,-1336,0194,-1486,0021,0005,0001,090.2996,047.9612,007.6627
212258244,-1329,0192,-1468,0019,0005,0003,089.8630,047.7118,008.3366
212263914,-1334,0202,-1490,0012,0010,0001,089.9131,047.5281,008.2078
212269603,-1337,0182,-1464,0009,0007,-0002,089.7112,047.8756,008.6659
212275224,-1335,0195,-1501,0003,0011,-0003,090.2147,047.2741,007.6617
212280912,-1339,0203,-1484,0007,0008,-0002,089.9300,048.1494,008.4012
212286538,-1343,0201,-1454,0013,0011,0000,089.6877,047.5519,008.6452
212292168,-1333,0198,-1504,0016,0006,0000,089.6624,046.8903,008.4966
212297762,-1334,0204,-1470,0017,0007,0002,089.9472,048.2850,008.4413
212303436,-1322,0197,-1499,0020,0008,0001,089.6199,047.3439,008.7208
212309099,-1311,0190,-1457,0022,0005,-0001,089.9774,048.4013,008.4361
212314785,-1329,0182,-1474,0022,0005,0002,089.9741,047.6648,008.2279
212320532,-1321,0188,-1468,0021,0004,0005,090.2710,047.6948,007.7364
212326235,-1316,0189,-1477,0023,0002,0005,090.0381,047.7289,008.1377
212331952,-1313,0188,-1489,0024,0000,0009,090.0668,048.0360,008.1749
212337527,-1310,0196,-1470,0027,0001,0016,090.1283,048.3281,008.1448
212343275,-1334,0192,-1495,0029,0001,0022,089.8209,047.9338,008.5498
212349019,-1351,0203,-1491,0031,-0001,0023,090.0582,047.9624,008.1395
212354758,-1350,0200,-1471,0031,-0001,0026,089.6872,047.4347,008.5988
212360522,-1340,0209,-1503,0033,0000,0030,089.7356,047.0974,008.4044
212366088,-1330,0217,-1504,0032,0003,0037,089.5880,048.0248,008.9214
212371827,-1345,0235,-1502,0033,0003,0034,089.3756,048.1499,009.3183
212377537,-1313,0213,-1479,0031,0003,0036,088.8900,047.6715,009.9869
212383291,-1335,0199,-1491,0033,0005,0034,089.4692,048.0768,009.1131
212389054,-1351,0195,-1462,0035,0004,0032,089.8324,047.8084,008.3903
212394771,-1330,0210,-1466,0035,0003,0029,089.7744,046.8472,008.1911
212400514,-1338,0197,-1495,0041,0007,0029,089.3486,047.5113,009.0819
212406262,-1342,0167,-1478,0039,0001,0031,089.8874,047.9113,008.2735
212412022,-1321,0174,-1503,0044,0004,0031,090.6086,047.4827,006.9218
212417781,-1334,0161,-1495,0043,-0001,0033,090.3626,048.5877,007.5965
212423525,-1327,0184,-1476,0041,0003,0032,090.7259,047.9726,006.7848
212429280,-1324,0177,-1475,0040,0004,0035,089.9280,047.7380,008.0478
212434991,-1329,0167,-1477,0037,0002,0036,090.2186,047.8420,007.5628
212440757,-1324,0161,-1476,0033,0005,0030,090.4675,047.7844,007.1078
212446503,-1321,0181,-1471,0026,0000,0027,090.5899,047.9060,006.9141
212452150,-1317,0176,-1474,0022,0003,0022,089.9847,047.7938,007.8981
212457899,-1335,0187,-1470,0021,0004,0020,090.1985,047.9833,007.5795
212463634,-1316,0175,-1452,0016,0003,0011,089.8381,047.4050,008.0275
212469369,-1317,0180,-1476,0019,0001,0008,090.1634,047.5704,007.5320
212475066,-1338,0166,-1479,0019,0001,0003,090.0749,048.0388,007.8107
212480749,-1347,0194,-1460,0020,0004,0000,090.5029,047.5902,006.9726
212486275,-1348,0182,-1474,0025,0002,-0005,089.5928,046.9516,008.3002
212491958,-1361,0182,-1479,0020,0000,-0010,090.0948,047.3385,007.5971
212497522,-1341,0196,-1487,0020,-0003,-0009,090.0512,047.0965,007.6111
212503160,-1354,0194,-1505,0014,0000,-0013,089.6905,047.7170,008.3994
212508809,-1357,0186,-1501,0015,0001,-0014,089.8673,047.7283,008.1194
212514491,-1354,0184,-1497,0013,0005,-0011,090.0657,047.6005,007.7631
212520264,-1345,0191,-1490,0013,0003,-0011,090.0937,047.6052,007.7300
212525977,-1358,0190,-1490,0014,0004,-0011,089.8728,047.6421,008.1239
212531731,-1331,0199,-1470,0011,0011,-0009,089.9398,047.3382,007.9404
212537503,-1314,0183,-1484,0009,0009,-0009,089.6013,047.5481,008.5828
212543134,-1330,0198,-1487,0013,0011,-0006,090.1619,048.2764,007.8483
212548919,-1311,0193,-1480,0009,0012,-0004,089.6784,047.8143,008.5595
212554582,-1311,0191,-1490,0010,0011,-0005,089.8733,048.1956,008.3526
212560300,-1311,0193,-1488,0005,0008,-0005,089.9531,048.3746,008.2816
212565923,-1323,0195,-1484,0003,0010,-0002,089.8883,048.3023,008.3882
212571592,-1316,0205,-1478,0001,0009,-0001,089.8335,047.9306,008.3885
212577216,-1325,0221,-1452,0004,0007,-0003,089.5501,047.9763,008.9065
212582826,-1322,0228,-1458,0009,0007,-0003,089.0470,047.1631,009.5125
212588465,-1326,0219,-1455,0014,0011,-0003,088.9294,047.4008,009.8105
212594222,-1325,0226,-1454,0013,0008,-0003,089.1994,047.2519,009.3262
212599897,-1322,0223,-1465,0014,0011,-0005,088.9784,047.2446,009.7127
212605654,-1340,0208,-1481,0016,0010,-0003,089.1495,047.5715,009.5538
212611346,-1338,0212,-1471,0015,0010,-0003,089.6376,047.5112,008.7240
212617043,-1353,0202,-1468,0019,0006,-0001,089.4227,047.3307,009.0380
212622694,-1361,0190,-1464,0019,0000,-0002,089.7363,046.9739,008.4205
212628240,-1343,0193,-1456,0019,-0002,0005,090.0285,046.7876,007.8972
212633925,-1329,0200,-1464,0021,-0005,0009,089.8783,047.0391,008.2113
212639591,-1340,0181,-1477,0022,-0004,0007,089.7267,047.4864,008.5964
212645287,-1331,0182,-1482,0024,-0008,0010,090.3472,047.5210,007.5660
212651004,-1308,0199,-1481,0027,-0007,0014,090.2441,047.8410,007.8168
212656758,-1314,0203,-1505,0023,-0010,0014,089.7651,048.2625,008.7605
212662518,-1334,0189,-1478,0026,-0009,0018,089.8023,048.5722,008.7853
212668276,-1314,0199,-1486,0026,-0006,0018,090.0913,047.5087,007.9648
212674048,-1341,0210,-1475,0028,-0006,0018,089.7844,048.2863,008.7104
212679764,-1317,0199,-1469,0026,-0007,0015,089.4689,047.2506,008.9233
212685512,-1330,0203,-1483,0026,-0006,0013,089.8022,047.8611,008.5483
212691271,-1348,0209,-1470,0026,-0010,0010,089.6984,047.7627,008.6941
212697022,-1352,0198,-1494,0022,-0012,0015,089.4833,047.0407,008.8298
212702814,-1338,0198,-1483,0019,-0009,0011,089.9340,047.6189,008.2568
212708585,-1352,0173,-1477,0016,-0009,0011,089.8250,047.6245,008.4433
212714331,-1360,0176,-1492,0017,-0005,0008,090.5504,047.2424,007.1332
212720017,-1365,0183,-1469,0017,-0002,0008,090.4122,047.4257,007.4039
212725701,-1364,0181,-1479,0020,0002,0008,090.1444,046.7696,007.6632
212731435,-1358,0179,-1465,0019,-0001,0007,090.2729,047.1003,007.5434
212737149,-1346,0169,-1455,0018,0004,0002,090.2658,046.8945,007.5020
212742849,-1347,0177,-1447,0017,0007,0003,090.5266,047.0138,007.1127
212748534,-1340,0188,-1463,0017,0009,-0003,090.2356,046.7784,007.5231
212754205,-1345,0191,-1474,0010,0014,-0002,090.0056,047.2899,008.0461
212759905,-1363,0159,-1466,0004,0012,-0002,089.9951,047.3378,008.0901
212765597,-1336,0184,-1482,0006,0015,-0006,090.9175,046.8316,006.4721
212771260,-1329,0166,-1489,0002,0015,-0010,090.1243,047.8163,008.0386
212776968,-1319,0191,-1499,0005,0007,-0014,090.7879,048.0533,006.9861
212782661,-1340,0175,-1476,0003,0008,-0015,090.0259,048.3962,008.4132
212788301,-1319,0188,-1480,0002,0007,-0014,090.5131,047.4156,007.3275
212793976,-1316,0195,-1521,0000,0007,-0020,090.1091,048.0747,008.2098
212799527,-1319,0189,-1497,0000,0010,-0019,090.1238,048.9001,008.4501
212805118,-1298,0206,-1470,-0007,0007,-0023,090.2182,048.2591,008.1217
212810808,-1318,0201,-1487,-0008,0005,-0025,089.6643,048.1893,009.0973
212816460,-1333,0197,-1459,-0006,0001,-0025,089.9435,048.1035,008.6155
212822124,-1325,0204,-1470,0002,0001,-0022,089.9330,047.1847,008.3813
212827804,-1327,0207,-1479,0007,0003,-0021,089.7909,047.6843,008.7921
212833496,-1349,0204,-1474,0010,0004,-0022,089.7737,047.7616,008.8680
212839236,-1342,0198,-1474,0012,0004,-0020,089.8569,047.1312,008.5547
212844984,-1354,0219,-1475,0013,0005,-0018,090.0343,047.4075,008.3604
212850752,-1349,0213,-1464,0014,0005,-0016,089.4085,047.0276,009.2967
212856503,-1335,0206,-1469,0004,0003,-0018,089.6428,046.9763,008.9203
212862202,-1339,0201,-1482,0004,0006,-0014,089.8485,047.4523,008.7490
212867863,-1346,0200,-1463,-0002,0007,-0011,090.0282,047.5953,008.5110
212873520,-1319,0198,-1468,0001,0009,-0012,089.9732,047.0046,008.4443
212879189,-1321,0196,-1464,0001,0007,-0011,090.0687,047.8208,008.5479
212884870,-1330,0166,-1476,0003,0008,-0010,090.1106,047.6040,008.4282
212890528,-1321,0202,-1474,0006,0004,-0003,091.0169,047.7694,006.9549
212896161,-1318,0191,-1478,0014,0001,-0002,089.8841,047.7990,008.8837
212901855,-1323,0197,-1478,0018,-0004,0003,090.3389,047.9919,008.1650
212907546,-1317,0217,-1480,0024,-0003,0011,090.1084,047.8294,008.5058
212913259,-1327,0224,-1467,0028,-0003,0016,089.5699,047.9618,009.4680
212919010,-1316,0229,-1489,0033,-0007,0018,089.3819,047.3949,009.5927
212924792,-1306,0215,-1438,0036,-0007,0022,089.3542,048.2123,009.9151
212930542,-1306,0241,-1449,0034,-0006,0026,089.5204,047.3103,009.3127
212936280,-1324,0213,-1487,0040,-0008,0028,088.8178,047.5009,010.5582
212942070,-1290,0212,-1483,0042,-0006,0029,089.8722,048.0177,008.9065
212947820,-1315,0207,-1487,0036,-0008,0029,089.7111,048.6617,009.3829
212953577,-1325,0201,-1489,0034,-0008,0028,089.8781,048.0859,008.8863
212959304,-1336,0196,-1509,0033,-0009,0031,090.0218,047.9907,008.5908
212965048,-1330,0208,-1494,0032,-0011,0027,090.2070,048.1909,008.3134
212970876,-1336,0172,-1482,0032,-0008,0023,089.7700,047.9362,008.9776
212976642,-1333,0171,-1491,0029,-0010,0023,090.8280,047.6884,007.0948
212982407,-1371,0168,-1496,0033,-0009,0019,090.7182,048.0022,007.3403
212988129,-1367,0172,-1474,0035,-0010,0023,090.8200,047.1907,006.9442
212993871,-1327,0166,-1467,0038,-0009,0022,090.6023,046.8875,007.1986
212999636,-1358,0174,-1456,0037,-0006,0017,090.7723,047.7411,007.1158
213005410,-1362,0164,-1488,0036,0000,0020,090.4574,046.6170,007.3243
213011025,-1336,0184,-1468,0038,0004,0016,090.8885,047.4036,006.8066
213016793,-1315,0177,-1512,0036,0007,0011,090.1716,047.4260,007.9836
213022565,-1318,0179,-1469,0031,0009,0008,090.6259,048.9398,007.6074
213028264,-1339,0187,-1524,0023,0008,0005,090.3565,047.7302,007.7433
213033955,-1326,0170,-1464,0020,0013,0002,090.3480,048.5060,007.9738
213039679,-1324,0172,-1480,0019,0013,-0003,090.6248,047.5016,007.2331
213045440,-1324,0171,-1467,0019,0013,-0004,090.5910,048.0083,007.4220
213051195,-1319,0182,-1497,0018,0008,-0013,090.5864,047.6558,007.3439
213056958,-1325,0193,-1455,0009,0005,-0013,090.3736,048.4524,007.9346
213062666,-1338,0172,-1491,0011,0007,-0017,089.9620,047.2739,008.3128
213068451,-1339,0172,-1458,0010,0006,-0018,090.7674,047.9479,007.1616
213074181,-1321,0175,-1481,0010,0010,-0015,090.5418,047.1124,007.3327
213079896,-1335,0190,-1468,0009,0006,-0016,090.5677,048.1418,007.5713
213085596,-1358,0188,-1455,0008,0004,-0014,090.0953,047.3379,008.1590
213091278,-1357,0184,-1478,0006,0005,-0014,090.1740,046.6165,007.8436
213096955,-1357,0185,-1451,0007,0007,-0014,090.3783,047.2539,007.7016
213102633,-1342,0202,-1456,0011,0009,-0012,090.2310,046.5773,007.7662
213108401,-1346,0184,-1459,0010,0011,-0010,089.7675,047.0712,008.6709
213114157,-1348,0204,-1483,0010,0010,-0011,090.3900,047.0339,007.6573
213119916,-1341,0196,-1488,0013,0011,-0005,089.8107,047.4583,008.7448
213125647,-1325,0225,-1494,0013,0005,-0004,090.1517,047.6975,008.2523
213131364,-1317,0211,-1479,0015,0006,-0002,089.3066,048.0662,009.8339
213137045,-1298,0214,-1479,0014,0007,0000,089.7611,047.9365,009.0135
213142634,-1333,0220,-1480,0016,0001,0002,089.6319,048.3769,009.3915
213148362,-1308,0222,-1518,0018,0004,0002,089.4830,047.4989,009.3669
213154086,-1322,0218,-1471,0022,-0002,0001,089.6115,049.0420,009.6692
213159786,-1317,0203,-1469,0021,-0008,0003,089.5168,047.5140,009.3283
213165469,-1321,0191,-1483,0026,-0004,0003,089.9472,047.8100,008.6937
213171140,-1318,0190,-1458,0029,-0005,0006,090.2933,048.0289,008.1614
213176842,-1299,0180,-1490,0028,-0005,0010,090.1821,047.5447,008.2031
213182548,-1337,0208,-1451,0028,-0010,0010,090.5867,048.7768,007.8439
213188356,-1333,0183,-1450,0029,-0007,0018,089.5808,046.7862,008.9517
213194127,-1355,0211,-1476,0029,-0007,0019,090.4253,047.1727,007.6796
213199852,-1348,0191,-1438,0031,-0005,0021,089.5926,047.0865,009.0097
213205588,-1364,0185,-1472,0028,-0008,0030,090.1205,046.4999,007.9685
213211351,-1346,0183,-1480,0027,-0007,0030,090.3648,046.9729,007.6920
213217075,-1335,0218,-1489,0029,-0005,0028,090.4068,047.5142,007.7527
213222847,-1343,0201,-1476,0027,-0005,0026,089.4079,047.7707,009.5083
213228572,-1348,0196,-1455,0030,-0006,0024,089.9880,047.3228,008.3778
213234269,-1339,0197,-1479,0029,-0005,0018,089.9662,046.8250,008.2591
213240019,-1335,0193,-1478,0034,-0004,0016,090.0302,047.6414,008.3830
213245760,-1335,0182,-1452,0031,-0004,0015,090.1267,047.6030,008.2000
213251486,-1338,0188,-1500,0029,-0001,0013,090.3272,047.0841,007.7141
213257216,-1334,0182,-1476,0026,0003,0015,090.2984,048.1141,008.0397
213262932,-1343,0197,-1501,0024,-0005,0011,090.3844,047.5560,007.7315
213268670,-1317,0185,-1469,0025,0005,0013,090.0285,047.9152,008.4292
213274439,-1345,0189,-1480,0025,0003,0013,090.2957,047.8298,007.9428
213280152,-1333,0186,-1481,0024,0008,0014,090.1824,047.4033,008.0065
213285891,-1349,0190,-1494,0024,0006,0013,090.2857,047.7811,007.9336
213291623,-1353,0195,-1454,0021,0008,0010,090.2003,047.6168,008.0280
213297349,-1349,0194,-1466,0016,0006,0009,089.9127,046.6526,008.2246
213303048,-1339,0204,-1458,0018,0003,0007,090.0307,047.1439,008.1774
213308728,-1333,0202,-1452,0017,0001,0003,089.6960,047.0971,008.7187
213314396,-1335,0191,-1468,0019,0001,0000,089.7747,047.1182,008.6029
213319942,-1342,0197,-1459,0022,0004,0000,090.1461,047.4532,008.0906
213325534,-1333,0189,-1456,0025,0003,0002,089.9041,047.0446,008.3723
213331152,-1336,0187,-1467,0029,0000,0001,090.1472,047.2534,008.0331
213336728,-1331,0201,-1442,0030,0006,0006,090.2179,047.4099,007.9556
213342347,-1313,0201,-1468,0030,-0004,0012,089.7186,046.9294,008.6302
213348045,-1322,0197,-1469,0025,-0002,0018,089.8547,047.9593,008.7130
213353774,-1331,0193,-1474,0030,-0006,0019,089.9529,047.6621,008.4463
213359503,-1314,0195,-1458,0033,-0007,0025,090.0667,047.6068,008.2236
213365234,-1341,0217,-1474,0030,-0009,0027,089.9243,047.6585,008.4647
213370961,-1333,0207,-1464,0034,-0008,0030,089.3520,047.2812,009.2940
213376656,-1355,0200,-1454,0035,-0008,0030,089.6695,047.3393,008.7701
213382315,-1343,0219,-1468,0035,-0013,0032,089.7828,046.6233,008.3534
213388092,-1333,0205,-1467,0034,-0009,0030,089.2477,047.2491,009.4113
213393781,-1347,0205,-1482,0036,-0006,0026,089.7247,047.4174,008.6571
213399515,-1357,0206,-1478,0033,-0005,0027,089.7154,047.3952,008.6537
213405312,-1325,0202,-1476,0035,0000,0027,089.6632,047.0717,008.6290
213410910,-1342,0192,-1495,0036,-0001,0028,089.7675,047.8316,008.6729
213416669,-1330,0192,-1469,0039,-0001,0027,090.1061,047.7867,008.0659
213422420,-1341,0200,-1469,0037,0002,0027,089.9496,047.5118,008.2335
213428139,-1362,0187,-1445,0036,0003,0025,089.7265,047.2584,008.5166
213433898,-1349,0181,-1467,0035,0000,0028,090.0393,046.3097,007.7276
213439503,-1352,0177,-1467,0031,-0003,0027,090.2473,047.2449,007.6325
213445304,-1334,0178,-1469,0028,-0005,0025,090.3302,047.0606,007.4336
213451027,-1347,0159,-1466,0025,0000,0023,090.2861,047.5592,007.6262
213456642,-1321,0168,-1500,0025,-0004,0021,090.8231,047.1777,006.6327
213462335,-1312,0159,-1514,0025,-0005,0018,090.5980,048.5759,007.3426
213468108,-1319,0147,-1480,0024,-0002,0018,090.9190,048.9199,006.8448
213473820,-1315,0168,-1483,0026,0000,0017,091.0983,048.0186,006.3055
213479472,-1292,0175,-1479,0025,-0005,0016,090.4818,048.2176,007.3923
213485211,-1318,0182,-1477,0025,-0004,0018,090.3352,048.6336,007.7479
213490952,-1336,0191,-1464,0024,-0002,0016,090.1399,047.9012,007.8761
213496675,-1334,0182,-1471,0023,-0005,0013,089.8538,047.2490,008.1672
213502454,-1333,0177,-1471,0025,-0002,0008,090.1837,047.5672,007.7063
213508134,-1336,0209,-1479,0024,-0001,0008,090.2780,047.5609,007.5433
213513806,-1360,0199,-1472,0026,0003,0005,089.3708,047.5567,009.0658
213519465,-1353,0201,-1465,0024,0001,0006,089.7510,046.8859,008.2360
213525100,-1343,0194,-1489,0025,0000,0008,089.6201,046.9670,008.4739
213530637,-1354,0186,-1482,0022,0001,0002,089.9287,047.7233,008.1883
213536346,-1352,0187,-1477,0023,0006,0003,090.1015,047.2607,007.7716
213542032,-1357,0183,-1481,0025,0010,0005,090.0317,047.2562,007.8847
213547707,-1335,0199,-1471,0026,0008,0006,090.1699,047.2392,007.6511
213553406,-1333,0192,-1466,0022,0007,0004,089.6487,047.4867,008.5889
213559110,-1340,0196,-1474,0023,0009,0006,089.9037,047.4165,008.1452
213564795,-1343,0190,-1455,0027,0006,0012,089.7837,047.4208,008.3437
213570503,-1334,0181,-1457,0026,0007,0009,089.9012,046.9562,008.0156
213576276,-1340,0185,-1445,0031,0004,0016,090.1550,047.2975,007.6869
213582055,-1327,0207,-1477,0036,-0002,0017,089.9536,046.8348,007.8763
213587788,-1322,0225,-1483,0042,-0002,0018,089.4442,047.8453,009.0119
213593554,-1321,0210,-1500,0038,-0002,0019,089.0167,047.8760,009.7535
213599276,-1327,0201,-1453,0037,-0003,0022,089.5718,048.3250,008.9260
213605014,-1302,0207,-1474,0032,-0002,0021,089.5581,047.1602,008.5818
213610785,-1331,0190,-1451,0034,-0005,0023,089.4654,048.3125,009.0910
213616492,-1339,0215,-1457,0027,-0005,0020,089.8614,047.0692,008.0381
213622265,-1326,0199,-1477,0031,-0002,0022,089.1002,047.0425,009.2721
213628015,-1345,0193,-1490,0034,0000,0025,089.7542,047.8668,008.4236
213633621,-1355,0186,-1465,0032,0003,0022,089.8724,047.6069,008.1375
213639384,-1374,0190,-1484,0035,0004,0022,089.9635,046.8709,007.7694
213645126,-1367,0188,-1493,0037,-0003,0016,089.8984,046.9341,007.8815
213650882,-1351,0183,-1472,0036,0001,0021,089.9885,047.2924,007.8212
213656630,-1374,0196,-1468,0035,-0001,0019,090.0381,047.1736,007.6956
213662349,-1365,0180,-1499,0036,0001,0017,089.6281,046.5288,008.1671
213668114,-1370,0184,-1437,0033,0004,0020,090.2567,047.5553,007.4162
213673853,-1355,0176,-1476,0033,0004,0018,089.8185,045.9315,007.6748
213679584,-1345,0174,-1488,0033,0004,0015,090.2589,047.3998,007.3539
213685327,-1364,0171,-1478,0026,0006,0016,090.2861,047.6846,007.3738
213691098,-1335,0179,-1446,0027,0008,0013,090.3314,046.9873,007.1136
213696846,-1334,0178,-1483,0021,0013,0011,089.9781,047.0337,007.6948
213702699,-1330,0180,-1462,0019,0013,0007,090.1876,047.9059,007.5831
213708439,-1331,0193,-1456,0013,0011,0003,090.0248,047.3910,007.7226
213714243,-1331,0196,-1495,0014,0010,0005,089.6441,047.2516,008.3195
213719965,-1338,0167,-1465,0015,0010,0002,089.7630,048.1241,008.3851
213725674,-1354,0187,-1474,0017,0007,-0004,090.4760,047.2799,006.9637
213731406,-1347,0173,-1440,0015,0008,-0001,089.8313,047.1382,007.9867
213737076,-1327,0177,-1467,0014,0010,0000,090.2051,046.6302,007.2555
213742694,-1348,0177,-1459,0018,0011,0000,090.1514,047.7232,007.6335
213748366,-1328,0196,-1467,0023,0011,0002,090.1309,046.9354,007.4590
213754123,-1339,0213,-1460,0022,0012,0003,089.6042,047.6205,008.5244
213759823,-1347,0195,-1435,0022,0007,0008,089.1572,047.0527,009.0992
213765526,-1346,0206,-1479,0023,0000,0007,089.6347,046.4559,008.1524
213771121,-1349,0180,-1484,0022,0002,0005,089.4462,047.4706,008.7676
213776802,-1357,0203,-1465,0022,0008,0000,090.2412,047.4723,007.4468
213782400,-1348,0193,-1492,0018,0006,-0001,089.4140,046.8045,008.6198
213788074,-1333,0190,-1489,0015,0008,-0003,089.9086,047.7152,008.0821
213793731,-1369,0185,-1470,0012,0009,-0004,089.9265,047.8942,008.1143
213799416,-1369,0190,-1445,0009,0014,-0009,090.0089,046.6487,007.6472
213805104,-1367,0174,-1450,0011,0021,-0008,089.7627,046.2248,007.9327
213810828,-1384,0181,-1475,0011,0023,-0013,090.3176,046.4929,007.1495
213816662,-1377,0196,-1445,0010,0026,-0015,090.1270,046.5961,007.4915
213822431,-1373,0193,-1460,0008,0032,-0021,089.5986,046.0248,008.1830
213828216,-1363,0187,-1467,0011,0027,-0023,089.8477,046.5521,007.9652
213834024,-1361,0204,-1474,0011,0031,-0025,090.0362,046.8879,007.7790
213839811,-1345,0190,-1467,0007,0026,-0023,089.5432,046.9785,008.6297
213845546,-1345,0182,-1478,-0001,0028,-0024,090.0217,047.2375,007.9500
213851278,-1347,0203,-1468,-0001,0027,-0025,090.2471,047.4697,007.6673
213856986,-1333,0187,-1456,-0005,0025,-0023,089.5790,047.0961,008.6921
213862705,-1328,0190,-1459,-0014,0027,-0017,090.1037,047.2656,007.9089
213868513,-1315,0188,-1459,-0014,0019,-0019,089.9857,047.4182,008.1772
213874337,-1322,0181,-1477,-0012,0015,-0017,090.0780,047.7119,008.1352
213880119,-1331,0181,-1483,-0008,0012,-0015,090.3539,047.9281,007.7507
213885849,-1322,0182,-1456,-0010,0011,-0011,090.3486,047.8120,007.7483
213891653,-1309,0195,-1476,-0007,-0001,-0010,090.2378,047.4481,007.8525
213897311,-1338,0198,-1468,-0008,-0002,-0008,089.9662,048.1827,008.5465
213902943,-1314,0200,-1477,-0009,-0007,-0006,089.8925,047.2392,008.4091
213908554,-1319,0206,-1471,-0008,-0009,-0007,089.8925,048.0883,008.6861
213914194,-1336,0190,-1493,-0011,-0010,-0007,089.7156,047.7301,008.9018
213919928,-1346,0211,-1501,-0011,-0015,-0005,090.2936,047.8983,007.9866
213925678,-1348,0205,-1477,-0012,-0014,-0004,089.6600,047.7380,009.0388
213931396,-1357,0197,-1472,-0005,-0015,-0001,089.8338,047.2139,008.6010
213937073,-1348,0188,-1486,-0004,-0009,0002,090.0326,046.9945,008.2235
213942687,-1342,0204,-1470,0001,-0014,0005,090.3244,047.5612,007.9104
213948380,-1336,0207,-1511,0010,-0013,0011,089.7650,047.2289,008.7457
213954184,-1326,0206,-1477,0017,-0016,0014,089.9191,048.3133,008.8189
213960003,-1323,0198,-1479,0020,-0022,0016,089.7872,047.6425,008.8330
213965806,-1336,0207,-1482,0026,-0022,0019,090.0446,047.8900,008.4618
213971621,-1309,0195,-1501,0025,-0018,0021,089.7467,047.5721,008.8620
213977408,-1317,0192,-1488,0022,-0015,0024,090.2093,048.7559,008.4097
213983180,-1334,0205,-1511,0023,-0015,0029,090.1614,048.0960,008.2835
213988939,-1347,0184,-1476,0026,-0012,0031,089.8769,048.2342,008.8040
213994731,-1342,0184,-1475,0021,-0010,0028,090.3823,047.2141,007.6401
214000528,-1345,0195,-1476,0021,-0009,0029,090.2930,047.4622,007.8406
214006280,-1350,0185,-1481,0023,-0003,0031,089.9775,047.3388,008.3156
214012018,-1347,0185,-1484,0029,0003,0025,090.3286,047.3844,007.7332
214017744,-1362,0195,-1476,0027,0004,0022,090.2818,047.5152,007.8342
214023524,-1340,0189,-1492,0024,0010,0018,089.9600,046.9366,008.1932
214029285,-1337,0183,-1481,0024,0012,0012,090.2414,047.9203,008.0022
214035043,-1352,0192,-1471,0027,0012,0011,090.3304,047.6203,007.7615
214040851,-1341,0181,-1451,0025,0009,0007,090.0106,047.0504,008.1280
214046514,-1354,0181,-1486,0025,0004,0003,090.3019,046.9873,007.6361
214052193,-1328,0169,-1495,0024,0002,0007,090.3931,047.4567,007.6082
214057879,-1330,0179,-1467,0029,0006,0001,090.7569,048.2508,007.1941
214063561,-1323,0170,-1495,0027,0001,0004,090.3259,047.4649,007.7104
214069259,-1299,0169,-1484,0024,-0001,0003,090.7290,048.3683,007.2596
214074907,-1316,0187,-1479,0026,0003,0006,090.6615,048.5779,007.4233
214080610,-1338,0193,-1515,0022,-0005,0014,090.1358,047.9829,008.1636
214086396,-1317,0204,-1463,0021,0006,0009,090.1573,048.2911,008.2138
214092142,-1345,0204,-1482,0019,0003,0011,089.6540,047.5954,008.8683
214097874,-1342,0204,-1462,0021,0001,0009,089.7892,047.4230,008.5901
214103581,-1326,0191,-1463,0021,-0002,0011,089.6902,047.0776,008.6501
214109361,-1352,0208,-1469,0019,-0001,0008,090.0892,047.5698,008.1355
214115030,-1347,0188,-1463,0019,0000,0007,089.5686,046.9677,008.8202
214120632,-1349,0197,-1479,0018,0004,0001,090.1951,047.0963,007.8404
214126304,-1336,0205,-1494,0015,0007,0001,089.9227,047.3565,008.3687
214131960,-1322,0195,-1514,0014,0009,-0001,089.7937,047.9250,008.7684
214137653,-1339,0212,-1506,0014,0013,0000,090.1697,048.6508,008.3389
214143293,-1334,0192,-1486,0013,0016,0000,089.6346,047.9368,009.0658
214148933,-1328,0193,-1500,0014,0018,0000,090.1858,047.7745,008.0831
214154546,-1333,0204,-1483,0022,0019,0000,090.1454,048.2323,008.2877
214160221,-1338,0197,-1474,0021,0018,0007,089.7744,047.6536,008.7523
214165979,-1327,0220,-1474,0028,0015,0006,089.9946,047.4335,008.3157
214171707,-1325,0229,-1468,0030,0017,0007,089.2944,047.6427,009.5639
214177436,-1334,0213,-1463,0029,0015,0013,089.1072,047.4934,009.8349
214183249,-1325,0214,-1505,0028,0010,0014,089.5796,047.2474,008.9609
214189019,-1341,0227,-1475,0032,0007,0016,089.6552,048.4293,009.2062
214194775,-1333,0200,-1459,0034,0005,0015,089.1461,047.1670,009.6569
214200460,-1333,0200,-1432,0035,0005,0017,089.9189,047.2724,008.4011
214206142,-1341,0211,-1471,0033,0000,0020,089.7200,046.6856,008.5410
214211740,-1367,0204,-1446,0037,0003,0023,089.5682,047.3696,008.9910
214217480,-1353,0209,-1470,0034,0004,0023,089.6829,046.1432,008.4207
214223214,-1346,0189,-1459,0033,0007,0027,089.6102,047.1684,008.8388
214228993,-1352,0203,-1459,0037,0012,0025,090.1630,047.0058,007.8716
214234768,-1359,0198,-1460,0034,0009,0030,089.6477,046.8359,008.6433
214240449,-1334,0195,-1467,0036,0010,0037,089.8645,046.7381,008.2471
214246252,-1334,0196,-1433,0040,0011,0040,089.9387,047.5204,008.3315
214252022,-1341,0194,-1438,0045,0012,0041,089.7522,046.6725,008.3632
214257777,-1334,0202,-1489,0040,0009,0045,089.8308,046.7037,008.2234
214263484,-1342,0202,-1468,0044,0013,0043,089.7751,047.9849,008.6733
214269301,-1342,0216,-1444,0042,0006,0044,089.6812,047.1309,008.5472
214275090,-1348,0203,-1489,0038,0004,0041,089.1692,046.6765,009.2222
214280837,-1351,0194,-1460,0033,-0001,0038,089.7976,047.6433,008.4708
214286577,-1354,0196,-1459,0033,-0002,0032,089.8469,046.8236,008.1342
214292345,-1326,0195,-1475,0034,-0005,0027,089.7672,046.8355,008.2530
214298100,-1345,0187,-1474,0032,-0004,0024,089.8643,047.8666,008.3832
214303838,-1322,0180,-1445,0033,-0011,0019,090.0736,047.2636,007.8483
214309673,-1319,0179,-1474,0039,-0010,0021,090.1322,047.2748,007.7387
214315477,-1352,0165,-1492,0034,-0011,0020,090.2497,047.9976,007.7239
214321268,-1358,0146,-1476,0040,-0008,0024,090.6879,047.5422,006.8471
214327010,-1351,0154,-1474,0035,-0007,0019,091.1188,047.1659,006.0358
214332771,-1330,0176,-1475,0034,-0007,0019,090.7974,047.3206,006.5709
214338523,-1328,0177,-1491,0026,-0004,0017,090.1887,047.7589,007.6792
214344294,-1330,0161,-1476,0019,-0001,0012,090.2986,048.0971,007.5793
214350067,-1374,0184,-1479,0011,0001,0011,090.6926,047.7181,006.8131
214355829,-1361,0176,-1466,0010,0008,0007,089.9781,046.7388,007.7324
214361498,-1359,0161,-1472,0004,0011,0003,090.2652,046.9060,007.3251
214367197,-1365,0180,-1476,0005,0017,0003,090.6977,047.1097,006.6831
214372859,-1354,0177,-1445,0000,0020,-0002,090.1062,046.9760,007.6168
214378424,-1354,0171,-1477,-0001,0020,-0006,090.1644,046.5875,007.4360
214384090,-1346,0183,-1463,-0002,0017,-0005,090.4597,047.3506,007.1696
214389802,-1334,0201,-1452,-0002,0015,-0003,090.0265,047.0903,007.8237
214395441,-1339,0186,-1476,-0003,0017,-0003,089.5374,047.1040,008.6471
214401119,-1337,0185,-1433,0001,0016,-0003,090.1342,047.5680,007.8087
214406806,-1339,0209,-1478,0008,0014,-0002,089.9386,046.6468,007.8841
214412499,-1335,0203,-1497,0012,0011,-0006,089.4312,047.5989,009.0155
214418218,-1313,0215,-1487,0016,0014,-0004,089.7593,047.9945,008.5917
214424042,-1323,0207,-1480,0013,0011,-0005,089.3364,048.2050,009.4104
214429775,-1313,0189,-1470,0017,0005,-0003,089.6115,047.8091,008.8194
214435481,-1325,0183,-1489,0018,0007,0000,090.0487,047.9457,008.1203
214441063,-1304,0187,-1468,0020,0008,0005,090.2388,048.0763,007.8319
214446739,-1323,0197,-1512,0018,0006,0010,090.0323,048.0928,008.1913
214452449,-1334,0211,-1507,0019,0010,0014,089.9272,048.5546,008.5100
214458232,-1319,0198,-1478,0020,0003,0016,089.5296,048.0685,009.0559
214463947,-1334,0210,-1486,0018,0005,0018,089.8376,047.9140,008.4765
214469729,-1338,0221,-1463,0027,-0001,0020,089.4796,047.7023,009.0171
214475435,-1364,0223,-1464,0031,-0003,0023,089.1166,047.0959,009.4244
214481179,-1364,0241,-1469,0037,-0002,0024,089.1067,046.5803,009.2646
214486941,-1359,0215,-1439,0039,-0001,0026,088.5956,046.6911,010.1265
214492730,-1350,0234,-1465,0044,0001,0025,089.3001,046.2224,008.8321
214498454,-1358,0220,-1463,0046,0002,0026,088.7452,047.0150,009.9817
214504220,-1371,0227,-1454,0039,0000,0025,089.2260,046.7182,009.0877
214509802,-1350,0204,-1492,0038,0006,0029,088.9090,046.2477,009.4346
214515531,-1351,0214,-1451,0035,0008,0029,089.7773,047.7236,008.4682
214521276,-1342,0192,-1468,0035,0004,0031,089.1856,046.5529,009.0695
214527021,-1323,0191,-1469,0036,0006,0033,089.9859,047.3848,008.0002
214532754,-1340,0192,-1453,0038,0004,0031,089.8899,047.7343,008.2430
214538523,-1351,0166,-1466,0035,0004,0030,089.8005,046.9357,008.1450
214544208,-1326,0169,-1456,0039,0001,0029,090.6224,047.1429,006.8464
214550007,-1329,0161,-1496,0034,0000,0024,090.3761,047.4759,007.3142
214555628,-1331,0168,-1440,0030,-0003,0015,090.7572,048.2567,006.8521
214561311,-1327,0165,-1464,0025,-0005,0018,090.3321,046.9314,007.2180
214567027,-1336,0162,-1474,0024,0000,0012,090.5296,047.6639,007.0708
214572672,-1325,0162,-1481,0020,0000,0009,090.6208,047.5888,006.8943
214578249,-1333,0166,-1466,0018,-0004,0007,090.6282,048.0036,006.9784
214583996,-1353,0182,-1477,0018,-0003,0006,090.4610,047.4301,007.1123
214589686,-1353,0186,-1466,0019,0001,0003,090.0531,047.2228,007.7298
214595351,-1358,0180,-1445,0017,0001,-0001,089.9530,046.9960,007.8369
214601040,-1364,0193,-1504,0021,0003,-0005,090.0715,046.4679,007.5109
214606715,-1364,0193,-1458,0018,0007,-0006,089.9018,047.6357,008.1167
214612408,-1374,0200,-1455,0019,0006,-0006,089.7553,046.4942,008.0404
214618063,-1361,0200,-1474,0022,0007,-0007,089.5622,046.3168,008.3043
214623695,-1352,0199,-1454,0016,0007,-0005,089.6683,047.0547,008.3629
214629399,-1357,0209,-1466,0021,0008,-0004,089.6125,046.7352,008.3690
214635076,-1361,0212,-1470,0018,0012,-0004,089.3815,046.8921,008.8030
214640780,-1363,0232,-1495,0019,0013,0000,089.3483,046.8562,008.8576
214646433,-1322,0211,-1474,0019,0011,0001,088.9002,047.2767,009.7496
214652195,-1326,0211,-1482,0018,0013,0006,089.4724,047.8183,008.9706
214657977,-1342,0201,-1453,0020,0015,0010,089.4288,047.8229,009.0534
214663701,-1334,0219,-1496,0020,0011,0009,089.6098,046.8551,008.4582
214669428,-1325,0207,-1474,0019,0012,0013,089.2432,048.0487,009.4565
214675237,-1326,0185,-1460,0025,0014,0019,089.5515,047.6517,008.7986
214681049,-1325,0195,-1495,0025,0015,0021,090.0865,047.4551,007.8373
214686837,-1330,0192,-1478,0029,0016,0018,089.8516,048.2557,008.4602
214692635,-1326,0204,-1512,0036,0012,0020,089.9057,047.6419,008.1760
214698400,-1343,0215,-1470,0038,0014,0024,089.6740,048.5321,008.8314
214704175,-1314,0219,-1484,0038,0012,0030,089.2141,047.0410,009.1316
214709966,-1352,0205,-1489,0036,0010,0027,089.2179,048.2522,009.5172
214715753,-1322,0199,-1472,0035,0010,0028,089.6312,047.3237,008.5046
214721522,-1334,0220,-1465,0036,0011,0029,089.6723,047.8113,008.5696
214727356,-1328,0198,-1475,0032,0015,0028,089.0124,047.2182,009.4858
214733156,-1335,0205,-1487,0032,0014,0027,089.7992,047.7598,008.3249
214738961,-1345,0180,-1487,0030,0017,0024,089.5161,047.7494,008.7955
214744717,-1351,0184,-1464,0032,0007,0025,090.2752,047.5938,007.4585
214750441,-1346,0182,-1468,0030,0007,0027,089.9549,046.9550,007.7991
214756181,-1358,0190,-1499,0031,0007,0029,090.0649,047.2604,007.6888
214761954,-1348,0197,-1465,0032,0011,0027,089.9203,047.5866,008.0055
214767759,-1349,0193,-1478,0036,0015,0028,089.5938,047.0008,008.3630
214773541,-1367,0204,-1474,0037,0013,0028,089.8062,047.3719,008.1084
214779338,-1349,0208,-1487,0040,0012,0028,089.4253,046.7657,008.5401
214785091,-1359,0204,-1472,0042,0005,0026,089.4078,047.5477,008.7963
214790839,-1339,0205,-1474,0041,0005,0025,089.4583,046.8851,008.4997
214796568,-1324,0209,-1512,0040,0007,0024,089.4230,047.4939,008.7330
214802293,-1310,0201,-1487,0038,0009,0021,089.4592,048.5764,009.0022
214808051,-1312,0200,-1474,0030,0009,0018,089.5786,048.2483,008.6852
214813759,-1294,0202,-1456,0026,0006,0019,089.5383,047.9688,008.6666
214819528,-1304,0179,-1465,0020,0008,0014,089.4208,048.0294,008.8918
214825236,-1316,0191,-1464,0017,0007,0012,090.1061,048.0596,007.7223
214830999,-1323,0169,-1474,0017,0009,0010,089.6993,047.7117,008.3191
214836733,-1347,0177,-1490,0021,0005,0008,090.4183,047.8723,007.1461
214842472,-1354,0161,-1456,0025,0005,0007,090.1471,047.6049,007.5287
214848164,-1358,0163,-1492,0025,-0002,0003,090.5354,046.7822,006.6870
214853823,-1341,0169,-1479,0025,-0003,0001,090.5426,047.5682,006.8585
214859476,-1343,0176,-1458,0024,-0002,0001,090.3243,047.5701,007.2192
214865130,-1363,0201,-1474,0023,-0003,-0002,090.0805,047.0492,007.4865
214870801,-1351,0191,-1469,0018,-0001,0000,089.4388,046.9107,008.4965
214876386,-1360,0178,-1500,0015,0006,-0005,089.7959,047.1318,007.9910
214882002,-1328,0173,-1500,0011,0006,-0007,090.2401,047.6012,007.3955
214887661,-1341,0182,-1478,0006,0005,-0008,090.3403,048.3198,007.4249
214893277,-1350,0165,-1477,0005,0010,-0005,090.0069,047.4282,007.7636
214898935,-1325,0190,-1491,0004,0017,-0009,090.5455,047.3503,006.8684
214904621,-1341,0189,-1501,0003,0016,-0013,089.8113,048.1864,008.3485
214910344,-1322,0197,-1502,0005,0018,-0014,089.9918,047.9094,007.9786
214916109,-1330,0201,-1500,0007,0019,-0010,089.7545,048.3986,008.5508
214921767,-1330,0216,-1500,0009,0018,-0008,089.6826,048.0815,008.5979
214927417,-1329,0205,-1484,0013,0021,-0010,089.2883,048.0656,009.2969
214933198,-1327,0219,-1509,0012,0020,-0010,089.6026,047.7813,008.6860
214938906,-1319,0230,-1486,0014,0019,-0004,089.2714,048.3580,009.4633
214944654,-1329,0221,-1464,0019,0018,0001,088.9177,047.9254,009.9513
214950404,-1350,0219,-1471,0027,0014,0000,089.1410,047.3079,009.3720
214956015,-1350,0211,-1463,0031,0013,0008,089.2031,047.0581,009.1918
214961774,-1340,0204,-1457,0032,0014,0011,089.3995,046.9392,008.8334
214967603,-1343,0216,-1449,0034,0012,0015,089.5517,047.0856,008.6263
214973375,-1346,0204,-1458,0036,0006,0021,089.1355,046.7692,009.2008
214979121,-1331,0206,-1471,0040,0007,0025,089.5813,046.9868,008.5331
214984798,-1327,0201,-1475,0035,0006,0030,089.5035,047.5894,008.8352
214990462,-1330,0209,-1482,0038,0003,0031,089.6638,047.7089,008.5861
214996177,-1325,0204,-1494,0036,0003,0035,089.4285,047.7465,008.9828
215001909,-1321,0201,-1468,0035,0003,0037,089.6421,048.1433,008.7232
215007591,-1322,0204,-1487,0035,0002,0035,089.5864,047.6373,008.6475
215013291,-1314,0199,-1475,0034,0003,0031,089.5734,048.0775,008.7928
215019053,-1321,0192,-1455,0039,0001,0034,089.6602,047.9629,008.5902
215024768,-1325,0198,-1492,0039,0001,0031,089.7608,047.4126,008.2399
215030536,-1342,0205,-1463,0043,-0001,0028,089.7087,048.1772,008.5377
215036262,-1367,0189,-1474,0043,-0002,0030,089.3900,047.0029,008.7013
215041958,-1377,0201,-1443,0043,-0006,0026,089.9331,046.8629,007.7636
215047698,-1357,0197,-1480,0042,-0004,0024,089.3675,045.9190,008.3734
215053445,-1364,0189,-1457,0045,-0004,0020,089.7119,047.3712,008.2353
215059164,-1364,0185,-1471,0037,-0004,0017,089.8001,046.5085,007.8391
215064942,-1355,0172,-1477,0027,-0005,0014,089.9571,046.9514,007.7046
215070658,-1361,0174,-1475,0027,0002,0013,090.3353,047.2722,007.1666
215076429,-1354,0180,-1481,0023,0003,0012,090.2116,047.0353,007.3022
215082157,-1340,0185,-1488,0021,0005,0006,090.0742,047.3488,007.6088
215087867,-1319,0184,-1452,0017,0010,0001,089.9765,047.7759,007.8943
215093591,-1327,0183,-1490,0019,0007,0002,089.8944,047.4408,007.9433
215099298,-1339,0193,-1484,0017,0010,0003,090.0730,048.1278,007.8373
215105023,-1318,0204,-1466,0018,0006,0000,089.7436,047.5771,008.2479
215110609,-1334,0191,-1475,0022,0012,-0004,089.4229,047.7145,008.8417
215116343,-1323,0196,-1458,0020,0008,-0007,089.8755,047.5613,008.0441
215122020,-1338,0208,-1479,0020,0011,-0004,089.6149,047.4574,008.4596
215127730,-1347,0224,-1474,0020,0008,-0006,089.3837,047.5301,008.8831
215133382,-1337,0228,-1494,0019,0007,-0005,088.9470,047.1419,009.5040
215139067,-1343,0197,-1465,0022,0004,-0002,088.9837,047.8435,009.6957
215144756,-1355,0204,-1479,0021,0008,0003,089.7527,047.0965,008.1764
215150419,-1339,0224,-1464,0020,0007,0004,089.5113,047.1918,008.6078
215156064,-1337,0216,-1468,0022,0007,0010,088.9051,047.1505,009.6063
215161849,-1340,0222,-1452,0028,0005,0011,089.2416,047.3251,009.1082
215167596,-1337,0217,-1491,0026,0005,0019,088.9457,046.8536,009.4451
215173356,-1345,0219,-1446,0028,0004,0022,089.3012,047.8782,009.1852
215179098,-1327,0217,-1483,0029,0004,0025,088.9982,046.5601,009.2572
215184844,-1314,0202,-1477,0031,0005,0027,089.2554,047.9985,009.2947
215190602,-1338,0214,-1468,0037,0003,0031,089.6112,048.0060,008.6689
215196343,-1322,0209,-1468,0043,-0001,0032,089.1702,047.1882,009.1418
215202080,-1345,0195,-1465,0038,-0002,0031,089.3659,047.6954,008.9636
215207842,-1338,0202,-1470,0036,-0005,0033,089.7300,047.0616,008.1505
215213591,-1340,0184,-1475,0036,-0004,0035,089.4778,047.4079,008.6537
215219340,-1357,0204,-1464,0038,-0004,0036,090.0533,047.4814,007.6961
215225073,-1347,0198,-1478,0039,-0010,0035,089.3229,046.7566,008.6651
215230851,-1334,0217,-1496,0042,-0010,0039,089.6471,047.4327,008.3158
215236608,-1341,0190,-1463,0039,-0012,0043,089.1057,047.9623,009.3813
215242385,-1333,0201,-1480,0043,-0015,0044,089.8196,047.0929,007.8922
215248141,-1341,0199,-1460,0040,-0016,0042,089.4444,047.7487,008.6866
215253919,-1329,0185,-1471,0039,-0012,0036,089.4696,047.0261,008.4095
215259698,-1327,0162,-1486,0036,-0012,0034,089.9113,047.7066,007.8547
215265480,-1350,0173,-1494,0031,-0009,0029,090.5652,048.0633,006.8207
215271229,-1337,0179,-1472,0030,-0007,0025,090.1627,047.6037,007.3673
215276919,-1338,0164,-1496,0028,-0004,0027,089.9573,047.4757,007.6623
215282643,-1345,0179,-1471,0029,-0003,0023,090.4933,048.0416,006.8922
215288396,-1346,0193,-1480,0029,-0008,0018,089.8874,047.1975,007.6756
215294141,-1345,0182,-1506,0031,-0004,0015,089.5925,047.4490,008.2279
215299902,-1345,0182,-1481,0028,-0003,0009,090.0446,048.0396,007.6274
215305573,-1337,0164,-1492,0024,0001,0009,089.8934,047.4229,007.7137
215311231,-1342,0179,-1471,0020,0000,0006,090.4662,047.9812,006.8962
215316822,-1342,0168,-1490,0023,0000,0004,089.8976,047.2996,007.6704
215322389,-1340,0176,-1469,0022,0003,0001,090.3390,047.8161,007.0712
215328074,-1351,0168,-1477,0023,0001,-0002,089.9902,047.3243,007.5279
215333729,-1351,0188,-1474,0022,0004,0001,090.2952,047.3273,007.0289
215339417,-1347,0192,-1476,0022,0004,0002,089.6625,047.1989,008.0360
215345075,-1348,0196,-1463,0023,0003,-0001,089.6424,047.3402,008.1166
215350729,-1345,0199,-1488,0021,0007,0003,089.4821,047.0022,008.2896
215356395,-1337,0190,-1486,0018,0009,0003,089.5178,047.6525,008.4315
215362073,-1328,0202,-1475,0018,0002,0002,089.7691,047.7407,008.0405
215367817,-1324,0187,-1496,0015,0002,0004,089.3511,047.6598,008.7336
215373490,-1330,0183,-1512,0015,0003,0003,089.9232,048.2775,007.9428
215379161,-1324,0204,-1497,0014,0004,-0002,090.0198,048.4062,007.8191
215384848,-1330,0200,-1459,0020,0003,0004,089.3704,048.1388,008.8787
215390462,-1321,0213,-1468,0025,0003,0003,089.4261,047.2523,008.5189
215396109,-1335,0213,-1482,0022,0000,0006,089.0897,047.6881,009.2288
215401669,-1330,0203,-1477,0022,0001,0004,089.1906,047.6158,009.0444
215407316,-1325,0211,-1460,0024,-0001,0005,089.4502,047.6688,008.6281
215412976,-1335,0228,-1487,0022,0002,0006,089.1296,047.3863,009.0878
215418640,-1351,0206,-1462,0023,0002,0004,088.7986,047.7041,009.7672
215424291,-1360,0213,-1447,0021,0001,0006,089.3729,046.8313,008.5381
215429974,-1346,0204,-1443,0023,0004,0002,089.0383,046.3718,008.9429
215435655,-1346,0191,-1495,0021,0004,0005,089.3341,046.6946,008.5795
215441354,-1345,0180,-1458,0021,0006,0007,089.8903,047.8549,008.0038
215447028,-1357,0174,-1468,0019,0007,0008,089.9986,046.9610,007.5806
215452708,-1341,0194,-1478,0018,0004,0009,090.1994,047.0187,007.2711
215458383,-1327,0186,-1456,0021,0005,0008,089.6242,047.5455,008.3645
215464079,-1358,0199,-1492,0019,0005,0010,089.8471,047.3538,007.9407
215469801,-1349,0201,-1509,0026,-0001,0011,089.5842,047.3858,008.3855
215475545,-1363,0187,-1472,0022,0000,0009,089.6268,047.9521,008.4854
215481130,-1345,0205,-1452,0025,0001,0010,089.8786,046.8299,007.7458
215486803,-1360,0215,-1450,0028,0001,0005,089.2520,046.8597,008.7696
215492476,-1347,0204,-1456,0024,0008,0007,089.0247,046.4285,009.0086
215498139,-1339,0208,-1441,0024,0006,0002,089.4129,046.9586,008.5564
215503802,-1355,0223,-1471,0022,0008,0002,089.1954,046.7380,008.8517
215509472,-1339,0218,-1463,0026,0009,0002,088.9136,046.9952,009.4050
215515188,-1373,0204,-1432,0024,0012,0005,089.0677,047.1807,009.2225
215520913,-1355,0215,-1443,0025,0008,0002,089.3365,045.7335,008.3561
215526576,-1366,0217,-1464,0027,0012,0003,089.0261,046.5330,009.0953
215532293,-1379,0217,-1471,0028,0011,0008,089.1021,046.6374,009.0136
215538037,-1349,0210,-1462,0032,0010,0005,089.1285,046.4785,008.9271
215543786,-1342,0222,-1435,0033,0008,0011,089.2957,047.0312,008.8313
215549566,-1341,0196,-1459,0032,0009,0014,088.8035,046.4731,009.4523
215555300,-1337,0203,-1439,0034,0011,0020,089.7382,047.1965,008.1550
215561081,-1346,0180,-1470,0035,0010,0021,089.3244,046.7306,008.6835
215566841,-1335,0203,-1460,0035,0012,0023,090.1842,047.3499,007.4473
215572617,-1351,0187,-1465,0032,0007,0023,089.3308,047.2139,008.8082
215578363,-1364,0183,-1490,0029,0005,0024,089.9379,047.0175,007.7479
215584110,-1360,0189,-1444,0024,0007,0020,090.0536,047.3035,007.6295
215589820,-1342,0185,-1464,0022,0008,0021,089.6866,046.3350,007.9489
215595595,-1338,0201,-1470,0020,0007,0019,089.9303,047.3541,007.8372
215601272,-1333,0202,-1491,0021,0008,0017,089.4495,047.3710,008.6396
215607026,-1346,0190,-1453,0021,0006,0012,089.5710,047.9504,008.6142
215612774,-1325,0200,-1499,0025,0009,0010,089.7563,046.7786,007.9651
215618429,-1333,0196,-1502,0024,0009,0009,089.6205,048.4026,008.6720
215624087,-1317,0206,-1496,0022,0004,0000,089.7663,048.0666,008.3240
215629653,-1322,0201,-1506,0022,0004,-0002,089.4565,048.3179,008.9494
215635335,-1319,0195,-1493,0017,0007,-0001,089.6750,048.4032,008.6032
215641025,-1336,0187,-1464,0018,0006,-0001,089.7737,048.2052,008.3805
215646685,-1353,0193,-1438,0019,0005,0000,089.8854,047.2429,007.9215
215652251,-1340,0199,-1508,0018,0004,-0001,089.6109,046.3891,008.1302
215657934,-1369,0186,-1465,0018,0003,0003,089.7341,048.2924,008.4911
215663604,-1361,0204,-1460,0013,0005,0000,089.9341,046.4988,007.6578
215669172,-1346,0185,-1464,0010,0003,-0001,089.3739,046.7072,008.6225
215674826,-1335,0177,-1474,0006,0004,0003,090.0193,047.1866,007.7245
215680438,-1312,0193,-1472,0011,0005,0001,090.2111,047.6266,007.5320
215686136,-1329,0198,-1471,0015,0005,0004,089.7310,048.0185,008.4628
215691779,-1323,0194,-1470,0017,0002,0006,089.6427,047.5361,008.4748
215697444,-1326,0201,-1500,0023,0004,0004,089.7679,047.7236,008.3237
215703085,-1322,0213,-1474,0021,-0001,0007,089.6693,048.2528,008.6556
215708776,-1296,0227,-1465,0021,0000,0005,089.2480,047.6793,009.2085
215714357,-1293,0211,-1466,0016,-0003,0003,088.8887,048.0912,009.9842
215720020,-1335,0206,-1493,0015,0000,0003,089.3609,048.2158,009.2128
215725564,-1325,0185,-1467,0012,0004,0000,089.5760,047.8221,008.7291
215731149,-1339,0184,-1478,0014,0004,0005,090.0458,047.6133,007.8790
215736824,-1340,0192,-1474,0013,-0001,0009,090.0711,047.5427,007.8196
215742503,-1358,0195,-1454,0021,0004,0006,089.8243,047.4164,008.1969
215748197,-1334,0212,-1469,0026,0005,0009,089.6922,046.5617,008.1655
215753914,-1348,0189,-1470,0030,0004,0015,089.2647,047.5183,009.1563
215759626,-1343,0196,-1486,0033,0005,0014,090.0007,047.1524,007.8189
215765368,-1351,0201,-1472,0032,0003,0013,089.7507,047.6520,008.3709
215771110,-1365,0184,-1440,0031,0004,0016,089.5820,047.0662,008.4726
215776883,-1346,0188,-1481,0035,0003,0016,089.9840,046.1635,007.5698
215782622,-1340,0206,-1489,0031,0004,0016,089.9597,047.6562,008.0106
215788391,-1338,0188,-1487,0034,0005,0018,089.4665,047.6808,008.8440
215794121,-1330,0190,-1479,0038,0002,0019,090.0433,047.7429,007.8748
215799868,-1317,0196,-1474,0034,0003,0021,089.8643,047.7437,008.1659
215805626,-1330,0189,-1469,0037,0002,0023,089.6910,047.9232,008.5016
215811381,-1330,0201,-1467,0040,-0001,0024,089.8881,047.5035,008.0311
215817069,-1318,0194,-1479,0040,0001,0025,089.4991,047.4735,008.6595
215822755,-1334,0184,-1460,0045,-0001,0029,089.7821,048.0481,008.3334
215828463,-1335,0197,-1472,0044,-0003,0032,089.9477,047.2252,007.7996
215834219,-1342,0226,-1483,0049,-0001,0029,089.5771,047.5196,008.4785
215839988,-1347,0192,-1467,0046,-0004,0028,088.8215,047.4414,009.7127
215845734,-1346,0210,-1459,0045,-0004,0030,089.8520,047.1042,007.8801
215851414,-1334,0182,-1475,0044,-0005,0029,089.1320,046.9369,008.9912
215857186,-1358,0176,-1483,0041,-0006,0029,090.1127,047.7060,007.5736
215862934,-1348,0198,-1474,0038,-0007,0024,090.1553,047.2156,007.3568
215868729,-1359,0181,-1482,0039,-0008,0024,089.4512,047.2471,008.5087
215874477,-1341,0182,-1469,0042,-0009,0022,090.0778,047.2151,007.4543
215880245,-1330,0182,-1465,0040,-0010,0022,089.9018,047.3572,007.7659
215886025,-1340,0184,-1494,0039,-0008,0021,089.9035,047.5104,007.7912
215891773,-1335,0184,-1480,0038,-0008,0020,089.9405,047.8828,007.8181
215897511,-1322,0180,-1491,0037,-0006,0019,089.8766,047.6424,007.8475
215903280,-1349,0186,-1466,0033,-0007,0017,090.0351,048.2523,007.7350
215909011,-1347,0169,-1475,0032,-0003,0016,089.7406,046.9519,007.8624
215914762,-1346,0174,-1479,0028,-0009,0014,090.3160,047.4273,007.0399
215920517,-1336,0176,-1481,0026,-0001,0012,090.0915,047.4561,007.4120
215926248,-1360,0169,-1483,0022,0000,0007,090.0717,047.7302,007.5163
215931847,-1342,0182,-1452,0021,0006,0008,090.2782,047.2049,007.0382
215937537,-1371,0172,-1459,0018,0005,0009,089.7712,046.9651,007.8000
215943211,-1337,0184,-1472,0021,0011,0005,090.1554,046.5039,007.0688
215948984,-1352,0204,-1493,0018,0010,0006,089.7920,047.6378,007.9620
215954710,-1342,0189,-1472,0013,0010,0002,089.3580,047.4964,008.6610
215960433,-1363,0189,-1470,0016,0010,-0003,089.7819,047.3422,007.9223
215966142,-1340,0190,-1470,0016,0010,-0002,089.7212,046.8291,007.8885
215971875,-1328,0183,-1481,0019,0008,-0001,089.7060,047.4406,008.0942
215977577,-1335,0199,-1482,0023,0011,0000,089.9576,047.9043,007.8061
215983220,-1335,0200,-1454,0026,0011,-0007,089.4780,047.6425,008.5526
215988929,-1328,0196,-1478,0027,0005,-0007,089.4073,047.0651,008.5074
215994620,-1319,0202,-1458,0024,0002,-0005,089.6328,047.8427,008.3722
216000300,-1343,0192,-1496,0026,0006,0000,089.3638,047.5016,008.7318
216005853,-1340,0200,-1497,0026,0005,-0003,089.8176,047.8216,008.0675
216011490,-1329,0225,-1477,0024,0006,-0002,089.5544,047.8526,008.5322
216017151,-1350,0198,-1435,0022,0008,0002,088.7993,047.5810,009.7444
216022864,-1336,0207,-1481,0026,0010,0003,089.5017,046.3314,008.2084
216028567,-1360,0203,-1471,0025,0014,0003,089.3563,047.8012,008.8971
216034276,-1357,0196,-1462,0026,0018,0007,089.4563,046.8227,008.4373
216040020,-1340,0190,-1458,0026,0019,0005,089.6199,046.8408,008.1833
216045789,-1360,0198,-1481,0026,0022,0009,089.7595,047.1725,008.0528
216051548,-1329,0186,-1493,0029,0023,0013,089.5932,047.1369,008.3143
216057347,-1347,0177,-1486,0034,0027,0015,090.0137,048.2053,007.9057
216063141,-1339,0210,-1466,0033,0027,0017,090.1754,047.4769,007.4252
216068979,-1364,0206,-1457,0034,0026,0019,089.0857,047.2106,009.1492
216074799,-1342,0194,-1459,0035,0024,0019,089.3407,046.4704,008.5027
216080602,-1346,0195,-1483,0038,0025,0021,089.6674,047.1962,008.1809
216086400,-1331,0214,-1479,0032,0024,0026,089.6740,047.5226,008.2558
216092199,-1327,0202,-1475,0033,0023,0027,089.0920,047.6737,009.2787
216097989,-1349,0199,-1462,0032,0023,0025,089.5143,047.7027,008.5652
216103768,-1315,0211,-1488,0038,0017,0025,089.4827,046.8914,008.3658
216109541,-1347,0208,-1471,0039,0012,0022,089.2349,048.3786,009.2401
216115325,-1325,0203,-1452,0043,0013,0020,089.2880,047.0154,008.7101
216121085,-1341,0187,-1481,0045,0015,0020,089.3426,047.3185,008.7047
216126827,-1352,0189,-1475,0043,0009,0018,089.9157,047.5988,007.8193
216132576,-1331,0187,-1479,0045,0009,0016,089.7438,047.1589,007.9694
216138323,-1337,0201,-1471,0039,0008,0016,089.8339,047.8217,007.9964
216144075,-1324,0184,-1491,0038,0006,0011,089.3776,047.3509,008.6207
216149809,-1354,0162,-1467,0037,0005,0010,090.0127,048.2366,007.7938
216155583,-1338,0165,-1447,0037,0008,0006,090.4747,046.9273,006.6824
216161278,-1351,0178,-1509,0032,0006,0006,090.2515,047.0314,007.0594
216166948,-1323,0186,-1484,0029,0006,0009,090.1015,048.0224,007.5582
216172675,-1333,0170,-1481,0026,0011,0008,089.8027,047.9986,008.0621
216178423,-1345,0193,-1458,0023,0015,0006,090.3006,047.7471,007.1501
216184130,-1331,0177,-1441,0020,0012,0003,089.4797,046.9253,008.2857
216189855,-1376,0172,-1475,0018,0015,0000,089.9837,047.0294,007.5057
216195479,-1350,0176,-1480,0013,0012,-0003,090.2054,046.7360,007.0827
216201193,-1360,0185,-1469,0012,0011,0001,090.0830,047.4802,007.4785
216206953,-1365,0185,-1477,0009,0015,-0005,089.8041,046.8675,007.7829
216212670,-1354,0181,-1468,0006,0010,-0005,089.8823,047.0099,007.7101
216218325,-1354,0185,-1450,0008,0013,-0007,089.9674,047.0640,007.6007
216224004,-1350,0175,-1489,0007,0008,-0011,089.7843,046.6479,007.7990
216229686,-1324,0193,-1462,0005,0006,-0011,090.2522,047.6843,007.3270
216235384,-1331,0180,-1483,0007,-0001,-0015,089.5981,047.5111,008.3928
216241025,-1341,0174,-1477,0007,0004,-0016,090.1361,047.8690,007.6063
216246749,-1337,0186,-1481,0007,0002,-0015,090.2300,047.4697,007.3594
216252428,-1330,0170,-1472,0011,0001,-0017,089.8945,047.6692,007.9896
216258175,-1327,0165,-1468,0016,0004,-0013,090.3815,047.6639,007.1824
216263934,-1350,0182,-1500,0016,0002,-0011,090.4536,047.6631,007.0692
216269658,-1347,0205,-1492,0018,0010,-0013,090.0696,047.7645,007.7500
216275441,-1360,0204,-1470,0019,0010,-0007,089.4344,047.5694,008.7765
216281156,-1350,0208,-1465,0019,0010,-0008,089.4765,046.8200,008.4937
216286892,-1363,0198,-1464,0019,0009,-0002,089.3382,047.0276,008.7944
216292584,-1365,0204,-1462,0022,0008,-0001,089.6558,046.7073,008.1928
216298247,-1338,0187,-1508,0025,0008,-0001,089.4356,046.6382,008.5327
216303919,-1343,0216,-1452,0023,0011,0000,090.1310,048.3448,007.8704
216309544,-1339,0209,-1437,0030,0012,0003,089.0246,046.7292,009.2445
216315237,-1349,0215,-1455,0031,0007,0003,089.2741,046.6690,008.8289
216320924,-1339,0228,-1450,0032,0004,0008,089.1505,046.8196,009.0799
216326651,-1351,0216,-1458,0030,0002,0006,088.7679,046.8710,009.7300
216332314,-1341,0227,-1482,0035,0005,0011,089.2078,046.8096,008.9939
216338037,-1338,0216,-1476,0037,0006,0014,088.9333,047.5464,009.6932
216343802,-1343,0209,-1480,0038,0005,0020,089.2637,047.4204,009.0892
216349494,-1349,0201,-1471,0043,0002,0027,089.4254,047.4341,008.8101
216355229,-1317,0207,-1475,0046,0003,0026,089.5924,047.1211,008.4233
216360984,-1347,0205,-1474,0049,0001,0034,089.3964,047.9934,009.0017
216366725,-1302,0192,-1486,0047,0006,0035,089.4640,047.1470,008.6057
216372424,-1341,0199,-1468,0052,0005,0040,089.8543,048.6365,008.3583
216378158,-1337,0188,-1465,0049,0007,0041,089.5176,047.1004,008.4513
216383905,-1340,0182,-1488,0048,0009,0045,089.8558,047.3664,007.9444
216389641,-1347,0191,-1460,0048,0009,0046,090.0493,047.7864,007.7067
216395366,-1349,0207,-1478,0041,0009,0045,089.6371,046.9194,008.1221
216401083,-1322,0193,-1470,0039,0009,0043,089.2783,047.3285,008.8150
216406847,-1323,0182,-1463,0039,0007,0042,089.6889,047.7842,008.2425
216412638,-1343,0207,-1460,0037,0007,0038,089.9139,047.5842,007.7868
216418384,-1311,0178,-1488,0038,0005,0036,089.1269,046.9788,008.8947
216424136,-1329,0180,-1499,0036,0004,0032,090.1784,048.5593,007.5547
216429902,-1337,0181,-1470,0035,0006,0035,089.9925,048.1234,007.7392
216435636,-1345,0190,-1486,0036,0004,0029,089.8789,047.3609,007.7067
216441394,-1322,0187,-1480,0036,0001,0026,089.6802,047.5938,008.0892
216447158,-1337,0202,-1451,0040,0000,0027,089.7646,047.9899,008.0437
216452778,-1339,0197,-1471,0040,0001,0029,089.2147,046.9296,008.6369
216458509,-1339,0217,-1480,0040,-0001,0028,089.4886,047.4451,008.3279
216464217,-1350,0183,-1452,0038,0003,0026,088.8988,047.4948,009.3257
216469978,-1352,0185,-1488,0031,-0001,0027,089.8562,046.7302,007.5190
216475734,-1349,0198,-1466,0029,-0003,0026,089.7969,047.5798,007.8352
216481473,-1350,0191,-1480,0026,-0002,0025,089.3349,046.9965,008.4251
216487186,-1350,0175,-1456,0020,0000,0023,089.6577,047.3886,008.0059
216492753,-1347,0185,-1450,0025,0003,0024,089.9823,046.8746,007.3300
216498443,-1361,0177,-1471,0025,0000,0021,089.6293,046.8310,007.8798
216504043,-1382,0175,-1458,0029,0006,0017,089.9791,046.9979,007.3551
216509752,-1357,0185,-1483,0029,0002,0015,089.9475,046.2132,007.1982
216515503,-1331,0175,-1483,0026,0004,0011,089.7418,047.4331,007.8489
216521244,-1350,0188,-1483,0022,0004,0010,090.0644,047.9050,007.4344
216526986,-1330,0182,-1492,0020,0005,0007,089.6414,047.3421,007.9929
216532661,-1342,0188,-1492,0017,0010,0008,089.9061,048.1118,007.7649
216538383,-1348,0182,-1471,0013,0011,0003,089.7048,047.7022,008.0029
216544122,-1322,0195,-1434,0013,0010,0004,089.8362,047.1719,007.6469
216549851,-1333,0174,-1484,0013,0012,0006,089.3213,047.0048,008.4500
216555624,-1333,0174,-1481,0016,0008,0004,090.1926,047.9555,007.2696
216561314,-1326,0178,-1480,0017,0008,0003,090.0498,047.7403,007.4585
216567005,-1329,0208,-1463,0018,0003,0004,089.9527,047.8999,007.6689
216572698,-1328,0183,-1492,0018,0004,0005,089.0511,047.3399,009.0307
216578404,-1316,0209,-1467,0021,0000,0001,090.0013,048.1567,007.6674
216583990,-1323,0189,-1474,0021,0004,0000,089.0745,047.7106,009.1322
216589617,-1326,0195,-1480,0018,0000,0001,089.7520,047.8044,008.0188
216595182,-1330,0181,-1471,0014,0002,0003,089.5363,047.8332,008.4033
216600870,-1345,0196,-1488,0012,0003,0000,089.9350,047.5877,007.6713
216606407,-1324,0197,-1484,0010,0001,-0001,089.5350,047.5828,008.3524
216612057,-1340,0185,-1479,0010,0003,-0001,089.5411,047.9908,008.4778
216617722,-1349,0200,-1463,0011,0005,0000,089.8734,047.4928,007.7841
216623275,-1340,0202,-1482,0012,0002,0004,089.3492,046.9530,008.5021
216628961,-1342,0185,-1495,0018,0002,0010,089.4287,047.6381,008.5835
216634678,-1328,0190,-1508,0019,0008,0013,089.9554,047.8385,007.7517
216640449,-1333,0192,-1493,0018,0006,0016,089.7862,048.4137,008.2048
216646189,-1342,0215,-1482,0021,0007,0017,089.7000,047.8799,008.1978
216651973,-1345,0208,-1450,0021,0008,0016,089.0039,047.4128,009.2356
216657728,-1343,0197,-1468,0019,0013,0017,089.1786,046.7368,008.7403
216663532,-1359,0216,-1468,0018,0011,0017,089.5680,047.3225,008.2834
216669343,-1331,0212,-1500,0015,0011,0015,088.9439,046.7771,009.1470
216675085,-1331,0201,-1470,0018,0009,0017,089.2929,048.2521,009.0392
216680809,-1330,0206,-1459,0017,0006,0015,089.4397,047.4228,008.5357
216686604,-1329,0204,-1474,0015,0006,0013,089.2352,047.2896,008.8435
216692332,-1325,0211,-1486,0021,0010,0013,089.3879,047.6738,008.7115
216698121,-1336,0211,-1478,0022,0003,0013,089.2139,047.9547,009.1026
216703869,-1313,0205,-1479,0030,0000,0012,089.2125,047.4712,008.9532
216709468,-1322,0211,-1453,0031,-0004,0015,089.3836,048.1142,008.8624
216715217,-1316,0194,-1484,0028,-0007,0014,089.0930,047.2572,009.0861
216720955,-1317,0182,-1496,0031,-0008,0014,089.7438,048.2432,008.2790
216726724,-1310,0199,-1471,0029,-0007,0016,090.0357,048.3820,007.8024
216732489,-1337,0194,-1483,0026,-0007,0015,089.4218,047.9333,008.7312
216738223,-1324,0201,-1505,0026,-0007,0018,089.6830,047.6195,008.1901
216743980,-1322,0185,-1464,0024,-0004,0018,089.5264,048.4363,008.7014
216749719,-1328,0191,-1486,0027,-0003,0019,089.8445,047.5482,007.8894
216755480,-1354,0176,-1486,0024,0001,0020,089.7101,047.9732,008.2330
216761161,-1354,0196,-1468,0022,0000,0019,090.1537,047.3489,007.3114
216766801,-1346,0181,-1490,0023,0005,0020,089.4522,046.9713,008.3509
216772582,-1347,0187,-1470,0023,0002,0019,090.0633,047.7491,007.5531
216778315,-1363,0189,-1470,0022,0007,0020,089.7196,047.1504,007.9555
216784024,-1355,0205,-1490,0023,0008,0018,089.7081,046.8529,007.8889
216789752,-1357,0197,-1475,0021,0009,0016,089.3212,047.4642,008.7052
216795577,-1353,0187,-1480,0023,0011,0015,089.5529,047.0279,008.1943
216801385,-1350,0214,-1499,0027,0015,0010,089.8370,047.3376,007.8158
216807167,-1328,0210,-1496,0028,0018,0013,089.0867,047.6826,009.1786
216812990,-1350,0205,-1470,0029,0017,0010,089.3019,048.1128,008.9516
216818765,-1358,0217,-1481,0031,0021,0011,089.3097,046.9728,008.5882
216824571,-1341,0203,-1486,0030,0023,0006,089.0060,047.1453,009.1486
216830263,-1354,0184,-1458,0032,0023,0009,089.4777,047.6792,008.5295
216836024,-1343,0201,-1459,0030,0019,0012,089.8628,046.7424,007.6282
216841771,-1318,0216,-1481,0036,0017,0014,089.3023,047.0982,008.6340
216847594,-1335,0207,-1464,0032,0016,0019,089.0258,048.0963,009.4200
216853384,-1338,0201,-1453,0032,0018,0022,089.2579,047.1926,008.7342
216859209,-1310,0211,-1477,0038,0014,0022,089.3553,047.0190,008.5151
216865018,-1323,0204,-1493,0034,0009,0025,089.1413,048.2168,009.2472
216870765,-1317,0201,-1471,0037,0011,0020,089.4356,048.1042,008.6932
216876559,-1327,0187,-1472,0033,0004,0025,089.3858,047.7936,008.6760
216882283,-1323,0177,-1476,0030,0010,0024,089.7943,047.6683,007.9400
216888032,-1337,0179,-1486,0031,0011,0027,090.0379,047.9016,007.5795
216893835,-1335,0178,-1452,0029,0013,0035,089.9679,047.7456,007.6394
216899643,-1348,0198,-1500,0028,0015,0035,089.8768,047.0794,007.5966
216905395,-1361,0201,-1476,0034,0019,0035,089.4735,047.8472,008.4714
216911142,-1374,0213,-1487,0033,0023,0035,089.3432,046.9074,008.3977
216916935,-1383,0221,-1483,0032,0026,0030,089.0514,046.9282,008.8736
216922718,-1354,0201,-1484,0022,0022,0023,088.8438,046.6017,009.1112
216928549,-1347,0162,-1479,0015,0020,0015,089.4759,047.4270,008.3391
216934323,-1340,0173,-1506,0006,0019,0008,090.5119,047.4736,006.6415
216940013,-1338,0144,-1511,0001,0027,-0001,090.1398,048.1878,007.4573
216945678,-1310,0160,-1484,0000,0043,-0004,091.0195,048.3335,005.9896
216951266,-1304,0136,-1474,0004,0046,-0002,090.4072,048.3643,007.0606
216956958,-1310,0154,-1502,0006,0051,-0007,091.1100,048.3580,005.8545
216962641,-1303,0152,-1500,0008,0040,-0004,090.6081,048.7677,006.8259
216968275,-1329,0158,-1509,0005,0033,-0004,090.7291,048.8402,006.6367
216973974,-1327,0162,-1488,0009,0039,-0003,090.5781,048.3854,006.7995
216979671,-1337,0166,-1465,0000,0037,-0004,090.4249,048.0251,006.9871
216985243,-1357,0192,-1463,-0007,0038,-0004,090.2701,047.3457,007.0936
216990919,-1388,0185,-1463,-0006,0042,-0007,089.5274,046.8157,008.1813
216996622,-1376,0204,-1451,0001,0037,-0008,089.8471,046.1941,007.5251
217002321,-1400,0213,-1456,0004,0027,-0009,089.2028,046.2125,008.5560
217008007,-1395,0223,-1456,0018,0021,-0012,089.0612,045.7489,008.6549
217013792,-1379,0226,-1478,0029,0017,-0008,088.7876,045.8808,009.1330
217019528,-1358,0212,-1463,0042,0007,-0008,088.8472,046.7005,009.3152
217025240,-1326,0240,-1457,0043,0002,-0004,089.1895,046.7943,008.7964
217030939,-1305,0226,-1420,0041,-0001,0002,088.3097,047.2800,010.4232
217036650,-1291,0232,-1458,0037,0007,0008,088.6279,046.9794,009.7930
217042352,-1300,0232,-1427,0034,0012,0014,088.6175,048.1118,010.2187
217048196,-1301,0226,-1458,0032,0021,0019,088.4849,047.1637,010.1121
217054079,-1301,0204,-1440,0030,0028,0024,088.8129,047.9225,009.8252
217059818,-1310,0196,-1441,0030,0027,0027,089.3017,047.5381,008.8602
217065588,-1309,0211,-1470,0030,0028,0031,089.4953,047.4046,008.4873
217071365,-1313,0196,-1490,0034,0029,0041,089.1527,048.0243,009.2512
217077160,-1285,0192,-1472,0042,0029,0045,089.6990,048.3473,008.3784
217082947,-1303,0220,-1491,0048,0029,0049,089.6472,048.5937,008.5147
217088764,-1288,0208,-1520,0057,0014,0052,088.9087,048.4282,009.7436
217094590,-1297,0229,-1522,0059,-0001,0056,089.4546,049.5150,009.0729
217100358,-1291,0215,-1524,0059,-0016,0060,088.7749,049.0619,010.1463
217106192,-1293,0219,-1550,0057,-0027,0059,089.2460,049.3749,009.3415
217112008,-1302,0208,-1527,0051,-0032,0058,089.1376,049.8064,009.6565
217117775,-1305,0202,-1552,0041,-0032,0055,089.3417,049.0881,009.0047
217123543,-1340,0189,-1538,0033,-0026,0054,089.5451,049.6604,008.7804
217129332,-1347,0171,-1499,0028,-0028,0053,089.7979,048.5205,007.9540
217135126,-1370,0166,-1492,0026,-0017,0054,090.1249,047.7205,007.1517
217140945,-1394,0163,-1519,0028,-0013,0058,090.1799,047.1530,006.8904
217146762,-1401,0179,-1491,0025,-0006,0057,090.3216,047.2671,006.6588
217152500,-1387,0168,-1484,0026,0004,0053,089.7447,046.4682,007.3616
217158266,-1390,0178,-1464,0030,0015,0049,090.0963,046.7602,006.8576
217164025,-1367,0159,-1435,0028,0022,0044,089.6704,046.1878,007.3656
217169834,-1346,0165,-1458,0022,0025,0035,090.1990,046.2017,006.5417
217175618,-1334,0159,-1441,0017,0033,0025,090.0165,047.2122,007.0670
217181492,-1339,0166,-1403,0016,0032,0013,090.1670,046.9871,006.7693
217187320,-1319,0140,-1446,0015,0025,0004,089.8254,046.0646,007.0871
217193020,-1287,0141,-1428,0018,0022,0001,090.7548,047.5970,005.9619
217198750,-1290,0144,-1467,0017,0011,-0003,090.6048,047.8052,006.2565
217204504,-1274,0131,-1468,0016,0004,-0009,090.6362,048.5520,006.3737
217210219,-1250,0142,-1446,0012,0002,-0011,090.9890,048.9111,005.8364
217215937,-1250,0164,-1441,0008,-0001,-0015,090.6392,048.9685,006.4798
217221606,-1275,0164,-1482,0005,-0003,-0019,090.0765,048.8100,007.4614
217227291,-1261,0179,-1486,0007,-0009,-0028,090.2120,049.0685,007.3098
217232963,-1282,0193,-1515,0001,-0011,-0033,089.8361,049.4094,008.1211
217238680,-1306,0182,-1530,0003,-0011,-0042,089.6002,049.4370,008.6065
217244474,-1338,0194,-1518,0000,-0011,-0040,090.0078,049.2025,007.8252
217250098,-1347,0215,-1516,0003,-0008,-0042,089.6159,048.2132,008.2770
217255781,-1340,0211,-1536,0001,-0009,-0044,089.1004,047.9863,009.1430
217261470,-1347,0203,-1515,0002,-0001,-0045,089.3702,048.6063,008.9119
217267093,-1371,0232,-1520,-0003,0009,-0044,089.5046,047.9798,008.5272
217272798,-1395,0220,-1507,-0002,0009,-0042,088.7527,047.4986,009.7016
217278504,-1407,0204,-1505,-0007,0011,-0039,089.1332,046.7940,008.8861
217284270,-1395,0227,-1484,-0002,0013,-0035,089.5650,046.6087,008.1736
217289992,-1375,0227,-1506,0000,0019,-0029,088.7989,046.3713,009.3568
217295627,-1375,0219,-1474,0006,0026,-0022,089.0006,047.3108,009.3713
217301342,-1377,0204,-1481,0011,0027,-0017,089.0905,046.5539,009.0067
217307165,-1357,0208,-1456,0016,0034,-0006,089.5659,046.8118,008.3386
217312889,-1364,0219,-1457,0020,0031,0002,089.2805,046.6701,008.7668
217318621,-1346,0231,-1475,0028,0030,0013,089.0003,046.5086,009.1709
217324453,-1342,0257,-1439,0039,0033,0025,088.7613,047.3282,009.8361
217330241,-1329,0250,-1467,0052,0030,0033,087.8681,046.3856,010.9598
217336048,-1282,0253,-1467,0056,0025,0045,088.3272,047.4893,010.6033
217341874,-1262,0255,-1477,0063,0016,0053,088.1604,048.4016,011.2283
217347746,-1263,0253,-1482,0069,0009,0061,088.1532,048.9781,011.4443
217353547,-1252,0264,-1450,0070,-0002,0065,088.2092,049.0025,011.3151
217359303,-1253,0239,-1465,0068,-0014,0069,087.7588,048.5493,011.9288
217365151,-1252,0218,-1487,0067,-0021,0071,088.4865,048.9709,010.7166
217371047,-1243,0201,-1484,0060,-0030,0067,089.0669,049.5194,009.7886
217376784,-1254,0194,-1491,0054,-0036,0063,089.4084,049.6762,009.1534
217382605,-1265,0179,-1496,0051,-0045,0053,089.5779,049.5701,008.7613
217388435,-1304,0184,-1499,0043,-0046,0047,089.9630,049.4701,007.9787