Time Stamp,Accel x,Accel y,Accel z,Gyro x,Gyro y,Gyro z,Yaw (Deg),Pitch (Deg),Roll (Deg)
154659613,-1838,0220,-0763,0008,0014,0013,088.6672,022.1715,007.1130
154665361,-1815,0232,-0749,0007,0021,0011,089.5390,022.4406,006.7844
154671105,-1814,0234,-0769,0010,0025,0011,088.2758,022.2489,007.3404
154676872,-1840,0225,-0766,0009,0026,0011,088.7212,022.8842,007.3536
154682584,-1827,0234,-0757,0012,0025,0012,089.2515,022.4008,006.9219
154688314,-1837,0223,-0744,0012,0026,0015,088.3437,022.3418,007.3511
154694098,-1837,0229,-0764,0013,0022,0019,088.9872,021.8463,006.8645
154699896,-1840,0222,-0767,0017,0020,0014,088.9016,022.5265,007.1470
154705644,-1845,0228,-0754,0016,0017,0015,089.4888,022.4801,006.8427
154711422,-1840,0239,-0764,0014,0012,0019,088.6783,022.0189,007.0786
154717180,-1844,0221,-0802,0012,0008,0018,088.2294,022.4351,007.4535
154722889,-1844,0216,-0775,0005,0004,0021,090.3284,023.4793,006.7564
154728552,-1832,0219,-0777,0003,0006,0019,089.8896,022.5587,006.6775
154734203,-1840,0222,-0797,0005,0012,0019,089.7780,022.8761,006.8405
154739935,-1832,0220,-0759,0001,0016,0017,089.9831,023.3279,006.8905
154745644,-1827,0224,-0761,0003,0019,0016,089.3424,022.2424,006.8469
154751375,-1846,0240,-0754,-0002,0019,0017,089.1872,022.4957,007.0149
154757144,-1832,0214,-0750,0003,0021,0012,087.9019,021.9901,007.4677
154762816,-1845,0238,-0746,0005,0019,0012,089.8835,022.1486,006.5695
154768524,-1842,0221,-0756,0008,0020,0005,087.8024,021.8151,007.4576
154774158,-1839,0233,-0774,0005,0011,0008,089.5438,022.2173,006.7643
154779877,-1858,0222,-0766,0009,0010,0003,088.8569,022.7278,007.2848
154785530,-1850,0246,-0782,0010,0005,0002,089.5652,022.2088,006.7579
154791163,-1842,0228,-0758,0014,0009,0005,088.1587,022.7978,007.6699
154796851,-1835,0217,-0763,0014,0004,0002,089.0835,022.1387,006.9742
154802485,-1845,0241,-0796,0019,0007,0003,089.8620,022.4757,006.7115
154808150,-1851,0220,-0770,0018,0009,0002,088.7746,023.2492,007.5310
154813819,-1837,0238,-0769,0018,0011,0004,089.8340,022.3532,006.6882
154819552,-1840,0234,-0754,0018,0015,0009,088.3880,022.5775,007.4831
154825261,-1858,0247,-0772,0025,0017,0009,088.5557,022.0649,007.2138
154830970,-1846,0242,-0776,0026,0016,0010,088.0171,022.4316,007.6173
154836728,-1835,0240,-0766,0032,0025,0015,088.5297,022.6630,007.4469
154842457,-1840,0218,-0750,0038,0021,0014,088.3772,022.4672,007.4502
154848236,-1839,0220,-0779,0041,0017,0016,089.6544,021.9783,006.6522
154854061,-1843,0231,-0748,0039,0014,0017,089.9129,022.9554,006.8493
154859878,-1831,0233,-0761,0037,0012,0019,088.3768,021.7811,007.1894
154865696,-1845,0220,-0746,0033,0008,0021,088.7640,022.5096,007.2639
154871407,-1842,0222,-0766,0029,0009,0023,089.3196,021.7911,006.7405
154877126,-1845,0227,-0749,0021,0012,0027,089.5171,022.5300,006.8973
154882917,-1839,0218,-0752,0017,0011,0027,088.7456,021.8593,007.0383
154888709,-1839,0230,-0753,0017,0012,0027,089.6070,022.1414,006.7232
154894478,-1832,0224,-0762,0016,0009,0025,088.6055,022.1083,007.1973
154900178,-1843,0200,-0769,0020,0005,0025,089.3880,022.4784,006.9451
154905812,-1828,0219,-0758,0024,0008,0024,091.1426,022.5370,006.1057
154911516,-1834,0220,-0761,0027,0010,0020,089.3347,022.3598,006.9247
154917265,-1840,0220,-0775,0028,0004,0015,089.5554,022.3955,006.8278
154922954,-1842,0216,-0769,0029,0008,0011,089.8128,022.7377,006.8150
154928695,-1824,0225,-0774,0028,0006,0011,089.9401,022.4908,006.6684
154934398,-1843,0228,-0778,0024,0009,0009,089.3820,022.8868,007.0793
154940056,-1837,0201,-0751,0025,0010,0009,089.3270,022.7141,007.0470
154945700,-1843,0225,-0759,0021,0007,0008,090.7207,022.0489,006.1515
154951364,-1855,0220,-0763,0018,0010,0009,088.9618,022.2605,007.0669
154957052,-1856,0214,-0804,0023,0009,0008,089.6372,022.2141,006.7232
154962688,-1848,0233,-0742,0020,0011,0006,090.7546,023.4101,006.5579
154968399,-1846,0223,-0778,0020,0008,0005,087.9910,021.5064,007.2622
154974045,-1859,0230,-0721,0019,0008,0002,089.8562,022.8603,006.8357
154979710,-1844,0228,-0739,0014,0006,-0001,087.8710,020.8427,007.0735
154985341,-1863,0227,-0775,0009,0008,0000,088.6986,021.8011,007.0423
154990814,-1858,0231,-0770,0010,0008,-0001,089.4246,022.4904,006.9358
154996477,-1845,0226,-0791,0007,0010,0001,088.9875,022.3406,007.1026
155002109,-1860,0212,-0781,0003,0015,0000,089.8214,023.1407,006.9674
155007638,-1836,0244,-0772,0006,0015,0003,090.4881,022.6064,006.4618
155013281,-1843,0223,-0784,0002,0015,0002,088.0074,022.6322,007.7103
155018901,-1823,0234,-0779,0008,0019,0001,090.0275,022.9302,006.8029
155024574,-1825,0250,-0748,0005,0019,-0001,088.9321,022.9790,007.3783
155030207,-1818,0248,-0769,0006,0019,-0001,087.3011,022.0164,007.8398
155035861,-1834,0237,-0765,0009,0020,0000,088.1074,022.8300,007.7569
155041395,-1833,0222,-0763,0013,0018,0000,088.6972,022.4420,007.3197
155047021,-1833,0233,-0735,0015,0019,0006,089.6571,022.4586,006.8542
155052742,-1840,0231,-0739,0020,0019,0005,088.1341,021.6051,007.2880
155058450,-1831,0225,-0772,0026,0014,0010,088.5657,021.7475,007.1361
155064188,-1836,0242,-0773,0030,0013,0012,089.6775,022.8608,006.9837
155070019,-1822,0243,-0741,0034,0005,0014,088.2974,022.6239,007.5919
155075745,-1832,0230,-0772,0034,0003,0014,087.7215,021.8824,007.5957
155081452,-1822,0227,-0752,0032,-0003,0016,089.4257,022.8061,007.0906
155087199,-1825,0235,-0756,0033,-0002,0015,088.9730,022.2071,007.1020
155092895,-1827,0236,-0764,0028,0000,0011,088.5439,022.3495,007.3645
155098503,-1856,0239,-0747,0025,0001,0009,088.7024,022.5437,007.3578
155104127,-1854,0230,-0789,0021,0002,0010,088.0963,021.6733,007.3344
155109817,-1851,0220,-0789,0017,0006,0008,089.7116,023.0557,007.0361
155115444,-1826,0237,-0764,0013,0007,0008,090.1991,022.9298,006.7492
155121144,-1860,0213,-0783,0015,0010,0007,088.4391,022.4858,007.4759
155126830,-1863,0219,-0742,0020,0009,0007,090.7402,022.7229,006.4176
155132440,-1843,0231,-0808,0026,0011,0007,089.2121,021.4650,006.7313
155138196,-1844,0234,-0760,0029,0014,0008,089.8927,023.8275,007.2056
155143894,-1849,0231,-0773,0032,0013,0009,088.5980,022.0474,007.2323
155149625,-1850,0245,-0782,0036,0013,0005,089.2682,022.6020,007.1003
155155373,-1834,0233,-0760,0038,0013,0008,088.3829,022.7583,007.6007
155161093,-1834,0229,-0767,0037,0011,0006,088.8713,022.2934,007.1857
155166833,-1835,0234,-0752,0037,0009,0004,089.2437,022.5768,007.1011
155172503,-1812,0233,-0788,0038,0009,0005,088.5014,022.0679,007.2823
155178153,-1807,0240,-0796,0036,0006,0004,089.4221,023.4879,007.3270
155183820,-1825,0225,-0771,0037,0009,0002,089.0048,023.6042,007.5865
155189470,-1807,0228,-0746,0038,0008,0002,089.5704,022.6540,006.9595
155195124,-1820,0227,-0776,0036,0004,0008,088.7789,022.2452,007.2045
155200808,-1830,0223,-0774,0036,0002,0007,089.5488,023.0204,007.0926
155206468,-1826,0229,-0757,0038,0002,0005,089.6911,022.7430,006.9232
155212137,-1835,0225,-0751,0037,0002,0012,088.8839,022.3153,007.1709
155217833,-1842,0226,-0797,0036,0001,0013,089.1322,022.0802,006.9648
155223550,-1840,0242,-0766,0036,-0005,0015,089.9712,023.4027,006.9973
155229268,-1844,0233,-0764,0034,-0007,0016,088.0796,022.2953,007.5566
155235019,-1837,0238,-0759,0036,-0004,0016,088.9418,022.3493,007.1490
155240745,-1840,0228,-0789,0038,-0005,0017,088.3392,022.2683,007.4145
155246464,-1826,0235,-0775,0036,-0006,0015,089.7673,023.1590,007.0123
155252167,-1846,0218,-0777,0041,-0002,0015,088.7876,022.7828,007.3740
155257879,-1845,0236,-0757,0035,-0001,0015,090.1559,022.6705,006.6494
155263549,-1826,0247,-0774,0041,-0001,0013,088.2654,022.0774,007.3668
155269289,-1847,0216,-0757,0039,0004,0013,088.1052,022.8931,007.7523
155275047,-1833,0219,-0766,0045,0004,0010,089.9931,022.0472,006.5159
155280725,-1813,0236,-0750,0041,0002,0013,089.6755,022.6027,006.8511
155286421,-1836,0236,-0776,0039,0003,0013,088.1853,022.2751,007.4689
155292124,-1836,0226,-0765,0036,0005,0015,088.9069,022.8103,007.3029
155297839,-1838,0230,-0767,0031,0010,0018,089.2805,022.4222,006.9786
155303595,-1861,0222,-0776,0021,0007,0018,088.9764,022.5045,007.1579
155309323,-1836,0218,-0778,0023,0008,0020,089.7736,022.4913,006.7599
155315027,-1823,0222,-0758,0012,0007,0023,089.9901,022.8676,006.7787
155320735,-1815,0224,-0760,0020,0012,0024,089.2739,022.3800,006.9670
155326473,-1821,0213,-0795,0018,0010,0019,089.2617,022.5902,007.0468
155332241,-1834,0226,-0781,0021,0011,0014,090.7682,023.5790,006.6128
155338021,-1827,0211,-0761,0026,0007,0013,089.3371,022.8138,007.0849
155343727,-1835,0205,-0788,0030,0007,0013,090.2087,022.4392,006.5265
155349435,-1830,0212,-0754,0034,0002,0009,091.0502,023.2068,006.3489
155355129,-1856,0243,-0764,0035,0005,0011,089.7715,022.1492,006.6350
155360836,-1846,0241,-0766,0038,-0001,0012,087.9044,022.2082,007.5639
155366540,-1814,0229,-0754,0035,0004,0013,088.3311,022.3866,007.4191
155372259,-1844,0241,-0787,0037,0001,0011,088.8544,022.4121,007.1680
155378019,-1834,0248,-0795,0035,-0003,0013,088.6531,023.0117,007.4843
155383726,-1836,0246,-0757,0036,0002,0012,088.3717,023.2786,007.7277
155389445,-1821,0253,-0795,0038,-0001,0014,087.6990,022.0849,007.6163
155395157,-1832,0235,-0791,0041,0000,0014,088.1578,023.5814,007.9521
155400773,-1848,0247,-0789,0047,-0001,0016,089.2140,023.1374,007.2339
155406513,-1860,0233,-0795,0053,-0001,0015,088.2147,022.9102,007.6587
155412219,-1851,0242,-0750,0054,0004,0010,089.4155,022.9919,007.0717
155417919,-1862,0227,-0754,0049,0010,0009,087.6541,021.7535,007.4897
155423640,-1855,0237,-0766,0043,0007,0013,089.0522,021.9190,006.8765
155429397,-1848,0230,-0721,0034,0009,0013,088.4031,022.3272,007.3369
155435121,-1857,0206,-0756,0023,0012,0010,087.9718,021.0157,007.0620
155440911,-1861,0225,-0745,0022,0016,0015,090.6351,022.1912,006.2164
155446658,-1844,0221,-0728,0025,0014,0015,088.5972,021.6069,006.9865
155452407,-1862,0224,-0753,0027,0016,0024,088.7873,021.3807,006.8169
155458190,-1848,0221,-0767,0035,0014,0024,089.0974,021.9533,006.8687
155463940,-1842,0214,-0740,0040,0018,0029,089.5619,022.4677,006.8161
155469713,-1832,0230,-0763,0048,0013,0027,089.4265,021.6570,006.6015
155475486,-1814,0237,-0766,0050,0013,0029,088.7480,022.5829,007.2463
155481234,-1823,0219,-0771,0052,0011,0026,088.4104,022.7404,007.4681
155487043,-1831,0232,-0769,0046,0011,0026,089.8428,022.7871,006.7613
155492814,-1833,0234,-0771,0036,0012,0023,088.6383,022.5973,007.2933
155498570,-1840,0232,-0765,0028,0014,0021,088.7198,022.6592,007.2747
155504351,-1825,0215,-0748,0021,0017,0021,088.7208,022.3840,007.1767
155510143,-1828,0215,-0763,0008,0017,0021,089.5894,022.1225,006.6661
155515891,-1845,0223,-0803,0005,0023,0019,089.7973,022.5773,006.7194
155521615,-1842,0205,-0750,0002,0020,0020,089.9971,023.4823,006.9221
155527239,-1846,0205,-0762,-0005,0017,0014,090.2203,021.8732,006.2922
155532971,-1849,0200,-0786,-0003,0014,0014,090.4427,022.3720,006.3479
155538650,-1826,0207,-0745,-0005,0012,0013,091.2262,022.9814,006.1555
155544365,-1826,0213,-0767,-0003,0009,0008,089.8591,021.9696,006.5030
155549971,-1828,0217,-0733,-0002,0014,0003,090.0344,022.7257,006.6706
155555628,-1836,0219,-0760,0003,0017,0006,089.0439,021.6213,006.7794
155561268,-1850,0216,-0760,0005,0022,0005,089.5872,022.4455,006.8051
155566938,-1861,0236,-0764,0005,0021,0007,089.7411,022.1717,006.6419
155572600,-1845,0220,-0750,0007,0022,0002,088.3983,022.1638,007.2952
155578244,-1849,0228,-0745,-0002,0016,0003,089.4144,021.9614,006.7385
155583931,-1847,0222,-0763,0000,0018,0002,088.6016,021.7778,007.0677
155589503,-1849,0217,-0774,-0005,0015,0002,089.5307,022.3621,006.8300
155595155,-1857,0223,-0782,-0005,0014,0003,090.0176,022.6036,006.6775
155600864,-1821,0233,-0739,-0004,0012,0001,089.7077,022.7026,006.8689
155606507,-1813,0235,-0779,-0003,0015,0001,088.1724,021.8605,007.3281
155612124,-1812,0217,-0766,0002,0010,0000,089.0504,023.2161,007.3904
155617624,-1831,0234,-0773,0006,0010,0001,089.9154,022.7433,006.7925
155623230,-1818,0230,-0745,0004,0011,0003,088.8110,022.7213,007.3415
155628882,-1815,0227,-0767,0012,0002,0002,088.6357,022.0693,007.1959
155634535,-1806,0226,-0749,0009,0003,0001,089.3404,022.8213,007.1190
155640135,-1808,0221,-0767,0008,0002,0006,088.9757,022.3372,007.1331
155645747,-1835,0234,-0754,0005,-0002,0006,089.7192,022.8751,006.9546
155651356,-1852,0229,-0796,0010,0002,0007,088.4662,022.0948,007.3018
155656991,-1836,0234,-0773,0012,-0001,0007,089.8333,023.2166,007.0181
155662643,-1816,0241,-0767,0019,0000,0010,088.8637,022.5980,007.2925
155668234,-1831,0260,-0764,0027,0000,0011,088.3818,022.7283,007.5836
155673842,-1827,0238,-0785,0030,0001,0014,087.0433,022.4112,008.1406
155679505,-1827,0256,-0785,0034,0004,0017,089.2035,023.1674,007.3243
155685214,-1827,0241,-0767,0041,0002,0020,087.6683,023.0338,008.0668
155690885,-1846,0246,-0774,0046,0000,0023,088.5098,022.5432,007.4468
155696482,-1839,0238,-0761,0047,0004,0020,088.2094,022.5720,007.6052
155702182,-1845,0240,-0775,0042,0007,0021,088.5126,022.2795,007.3430
155707912,-1850,0239,-0757,0038,0004,0021,088.6316,022.6612,007.4217
155713629,-1846,0218,-0825,0026,0004,0018,088.2850,022.0127,007.3546
155719348,-1820,0219,-0746,0018,0005,0018,091.1354,024.1981,006.6510
155725092,-1845,0218,-0782,0017,0007,0017,089.1977,021.9442,006.8841
155730843,-1839,0210,-0793,0015,0009,0021,090.2310,022.9592,006.7215
155736550,-1852,0210,-0807,0019,0013,0019,090.8594,023.2263,006.4895
155742363,-1857,0227,-0806,0026,0017,0016,091.0308,023.4434,006.4669
155748179,-1824,0224,-0776,0028,0019,0018,089.8081,023.2946,007.0411
155753972,-1856,0207,-0767,0031,0014,0015,089.5881,022.8381,006.9949
155759733,-1845,0221,-0740,0036,0014,0012,090.6630,022.2630,006.2759
155765490,-1842,0237,-0756,0034,0011,0012,088.8831,021.6356,006.9101
155771258,-1828,0230,-0766,0029,0007,0011,088.3234,022.2306,007.3957
155776981,-1854,0245,-0779,0030,0008,0011,089.1311,022.6251,007.1380
155782709,-1822,0236,-0769,0028,0010,0007,088.2525,022.6151,007.5757
155788419,-1834,0230,-0770,0024,0003,0009,088.7766,022.7245,007.3533
155794069,-1814,0222,-0769,0028,-0001,0012,089.1524,022.6000,007.1205
155799808,-1827,0225,-0778,0031,-0007,0010,089.6447,022.8428,006.9571
155805505,-1814,0221,-0757,0031,-0005,0011,089.5523,022.9170,007.0270
155811220,-1843,0228,-0776,0037,-0004,0009,089.4162,022.4563,006.9336
155816891,-1823,0242,-0796,0030,-0002,0010,089.3223,022.7048,007.0650
155822559,-1838,0247,-0767,0025,0003,0007,088.7807,023.5015,007.6278
155828173,-1831,0234,-0772,0020,0004,0006,087.8979,022.3543,007.6543
155833800,-1857,0230,-0769,0008,0008,0010,089.0243,022.7399,007.2368
155839444,-1820,0225,-0763,0001,0014,0008,089.1119,022.2989,007.0423
155845086,-1847,0236,-0807,0004,0020,0012,089.3352,022.6268,007.0509
155850795,-1836,0224,-0769,0006,0022,0015,089.4504,023.5440,007.3160
155856507,-1838,0220,-0762,0006,0025,0011,089.5110,022.4549,006.9110
155862207,-1835,0238,-0772,0014,0025,0011,089.6525,022.3705,006.8146
155867956,-1843,0233,-0772,0015,0020,0011,088.5522,022.6936,007.4775
155873688,-1844,0224,-0784,0020,0016,0009,089.0751,022.5533,007.1668
155879384,-1839,0236,-0783,0018,0011,0010,089.8830,022.9285,006.8938
155885143,-1832,0228,-0787,0017,0008,0014,088.9071,022.8910,007.3749
155890859,-1863,0228,-0770,0015,0000,0012,089.6923,023.1140,007.0555
155896447,-1838,0241,-0779,0017,0002,0012,089.2495,022.2278,006.9703
155902178,-1843,0248,-0753,0018,0005,0014,088.5682,022.8759,007.5443
155907925,-1854,0241,-0760,0021,0007,0015,087.5798,021.9289,007.6814
155913636,-1834,0238,-0801,0024,0010,0014,088.3905,022.1495,007.3700
155919364,-1833,0250,-0808,0028,0013,0014,089.3768,023.6087,007.3972
155925112,-1819,0248,-0785,0028,0017,0014,088.5740,023.5973,007.8177
155930870,-1831,0246,-0749,0030,0019,0014,088.3339,023.0945,007.7555
155936599,-1820,0222,-0775,0029,0022,0011,087.7010,021.9461,007.6375
155942357,-1828,0264,-0769,0029,0019,0013,090.0765,023.0563,006.8562
155948181,-1826,0228,-0777,0027,0023,0012,086.5919,022.5375,008.4392
155953940,-1820,0219,-0783,0030,0019,0014,089.8805,022.9491,006.9212
155959765,-1838,0206,-0770,0030,0014,0014,090.1548,023.1613,006.8513
155965536,-1814,0219,-0761,0031,0011,0018,090.7854,022.5241,006.3288
155971320,-1846,0195,-0774,0035,0006,0017,089.5745,022.6229,006.9516
155977025,-1831,0214,-0760,0033,-0003,0017,091.7056,022.6329,005.9070
155982759,-1824,0223,-0758,0039,-0003,0018,089.7496,022.3711,006.7684
155988504,-1833,0216,-0760,0040,-0003,0018,089.3121,022.4195,006.9952
155994215,-1830,0228,-0784,0039,-0003,0019,089.9096,022.3728,006.6832
155999935,-1857,0230,-0754,0040,0000,0013,089.4593,023.1282,007.1610
156005539,-1848,0226,-0767,0037,0000,0010,088.7568,021.8255,007.0467
156011133,-1833,0234,-0782,0036,0004,0011,089.3877,022.4557,006.9607
156016871,-1833,0230,-0773,0036,0004,0004,089.0641,023.0095,007.3159
156022534,-1836,0235,-0758,0031,0005,0007,089.1970,022.6676,007.1271
156028207,-1843,0238,-0779,0028,0008,0007,088.4980,022.2188,007.3126
156033851,-1852,0228,-0784,0022,0011,0008,088.8346,022.8111,007.3622
156039601,-1845,0197,-0801,0017,0011,0006,089.6028,022.7893,006.9701
156045300,-1850,0219,-0781,0009,0012,0011,091.9717,023.4247,005.9813
156051018,-1847,0213,-0762,0006,0014,0016,089.7496,022.6609,006.8531
156056744,-1848,0220,-0785,0005,0016,0009,090.1036,022.2384,006.5424
156062428,-1822,0224,-0770,0003,0020,0011,090.0200,022.9580,006.8240
156068146,-1830,0221,-0777,0011,0024,0004,089.4630,022.7373,007.0308
156073856,-1831,0240,-0771,0012,0025,0002,089.9020,022.8814,006.8630
156079527,-1832,0257,-0776,0015,0024,0004,088.3783,022.6387,007.5458
156085227,-1842,0246,-0772,0018,0023,0003,087.5171,022.7800,008.0437
156090928,-1842,0256,-0771,0022,0020,0009,088.3125,022.5361,007.5488
156096631,-1857,0276,-0765,0025,0019,0009,087.4938,022.5212,007.9591
156102353,-1825,0241,-0762,0022,0016,0009,086.0905,022.1294,008.5151
156108091,-1823,0235,-0762,0029,0015,0011,088.6606,022.5390,007.3867
156113884,-1819,0257,-0758,0027,0009,0011,088.7424,022.5158,007.3381
156119614,-1820,0236,-0759,0029,0004,0015,087.0901,022.4097,008.1295
156125302,-1814,0238,-0765,0030,0006,0016,088.7843,022.4759,007.3047
156130993,-1807,0212,-0788,0030,0003,0017,088.5809,022.7153,007.4938
156136710,-1827,0229,-0778,0030,0006,0019,090.8660,023.5016,006.5973
156142425,-1812,0208,-0763,0030,0003,0018,089.1894,022.8232,007.2197
156148122,-1820,0212,-0764,0023,0007,0020,090.5720,022.6900,006.4849
156153816,-1800,0212,-0784,0024,0008,0021,090.1611,022.6292,006.6650
156159520,-1810,0221,-0778,0019,0008,0016,090.5867,023.4721,006.7244
156165251,-1813,0223,-0769,0021,0010,0016,089.8015,023.0667,006.9897
156171025,-1815,0212,-0779,0020,0008,0014,089.5706,022.8028,007.0157
156176707,-1822,0210,-0799,0019,0010,0014,090.5648,023.1235,006.6224
156182488,-1845,0204,-0776,0024,0015,0012,090.9734,023.6110,006.5665
156188215,-1836,0221,-0790,0028,0012,0011,090.9012,022.5697,006.2745
156194002,-1843,0236,-0776,0027,0013,0010,089.9564,023.2239,006.9546
156199742,-1839,0222,-0778,0027,0013,0011,088.7537,022.5951,007.3422
156205584,-1859,0218,-0774,0028,0010,0011,089.9788,022.8158,006.8063
156211345,-1839,0232,-0789,0023,0011,0008,089.9871,022.4215,006.6705
156217076,-1844,0224,-0790,0023,0009,0006,089.3024,023.1510,007.2625
156222727,-1847,0239,-0774,0022,0008,0008,089.9623,023.0277,006.8845
156228399,-1819,0229,-0766,0028,0006,0007,088.5158,022.5119,007.4292
156234054,-1848,0228,-0800,0027,0010,0008,089.2183,022.6960,007.1449
156239707,-1838,0238,-0815,0031,0006,0006,089.8938,023.3176,007.0158
156245363,-1843,0238,-0784,0037,0006,0000,089.4388,023.7895,007.4144
156250905,-1808,0244,-0798,0035,0003,0001,088.8802,022.7904,007.3464
156256527,-1832,0244,-0797,0037,0001,0002,088.8147,023.7220,007.7190
156262190,-1812,0220,-0763,0034,-0006,-0002,088.8019,023.2760,007.5622
156267837,-1806,0218,-0767,0026,-0010,-0001,089.7360,022.6282,006.8605
156273525,-1798,0215,-0765,0024,-0012,0005,089.8626,022.8778,006.8811
156279205,-1816,0212,-0752,0023,-0012,0005,090.0155,022.8976,006.8103
156284928,-1819,0226,-0752,0024,-0011,0003,089.9569,022.2967,006.6387
156290670,-1822,0224,-0798,0028,-0009,0008,088.9480,022.3020,007.1311
156296361,-1830,0228,-0767,0029,-0005,0011,090.1561,023.6667,006.9886
156302082,-1834,0241,-0796,0027,0001,0013,089.0730,022.4397,007.1157
156307812,-1840,0232,-0786,0030,0001,0014,088.9183,023.4053,007.5395
156313482,-1834,0236,-0765,0024,0002,0014,089.3483,022.9140,007.1435
156319180,-1832,0238,-0811,0023,0007,0013,088.5663,022.4166,007.3580
156324889,-1846,0238,-0782,0017,0013,0016,089.4923,023.8872,007.4107
156330697,-1832,0252,-0783,0013,0018,0014,088.7735,022.6391,007.3397
156336509,-1827,0238,-0776,0012,0021,0012,087.9247,023.0043,007.9136
156342266,-1845,0231,-0747,0016,0017,0013,088.8954,022.8202,007.3508
156348047,-1847,0221,-0776,0021,0018,0013,088.6150,021.7561,007.1058
156353823,-1855,0225,-0741,0023,0017,0010,090.0205,022.7847,006.7786
156359557,-1850,0236,-0759,0020,0014,0013,088.7693,021.4817,006.9343
156365301,-1847,0245,-0753,0018,0006,0007,088.5486,022.2423,007.3177
156370982,-1852,0218,-0754,0016,0001,0011,087.8007,021.9734,007.5869
156376711,-1839,0223,-0765,0018,-0002,0010,089.8963,022.0176,006.5925
156382414,-1830,0216,-0777,0017,0003,0009,089.4771,022.4975,006.9591
156388079,-1837,0221,-0773,0017,0000,0007,090.2819,022.9107,006.6991
156393645,-1827,0211,-0769,0023,0006,0007,089.7520,022.6491,006.8750
156399287,-1840,0234,-0770,0024,0009,0005,090.4392,022.6979,006.5508
156404965,-1828,0247,-0779,0027,0010,0006,088.7369,022.5271,007.3353
156410684,-1823,0232,-0747,0031,0010,0005,088.2437,022.9512,007.7435
156416397,-1826,0235,-0762,0030,0009,0004,088.6617,022.0335,007.1954
156422061,-1812,0248,-0753,0029,0008,0004,088.7324,022.5416,007.3461
156427729,-1840,0252,-0791,0025,0005,0003,087.6317,022.3625,007.8319
156433360,-1833,0240,-0775,0018,0005,0001,088.3173,023.1555,007.7905
156439007,-1839,0233,-0758,0024,0007,0001,088.7230,022.6952,007.4139
156444665,-1843,0257,-0796,0022,0003,0006,088.7943,022.1820,007.1938
156450329,-1822,0236,-0778,0018,0009,0004,087.9645,023.2861,008.0320
156455986,-1813,0225,-0789,0020,0008,0008,089.1124,022.9122,007.3013
156461631,-1828,0226,-0759,0023,0005,0009,089.9486,023.4101,007.0465
156467290,-1809,0239,-0776,0025,0006,0011,089.1722,022.2833,007.0468
156472956,-1830,0233,-0771,0026,0003,0008,088.7191,023.1219,007.5770
156478622,-1822,0238,-0737,0030,0004,0012,089.0804,022.6256,007.2133
156484307,-1822,0240,-0775,0031,0001,0014,087.9363,021.7789,007.4633
156489998,-1821,0248,-0788,0029,0000,0015,088.7700,023.0137,007.5093
156495617,-1833,0251,-0750,0031,0003,0017,088.3913,023.2326,007.7863
156501300,-1821,0244,-0806,0033,0002,0020,087.3685,021.9247,007.7995
156506973,-1834,0231,-0800,0034,0002,0021,089.2206,023.9418,007.6084
156512645,-1836,0232,-0770,0033,0000,0024,089.7195,023.3358,007.1294
156518234,-1827,0246,-0774,0039,-0001,0023,088.9777,022.5082,007.2107
156523941,-1843,0242,-0760,0039,0000,0024,088.1533,022.8127,007.7359
156529609,-1831,0215,-0776,0040,0005,0022,088.2353,022.1674,007.4497
156535291,-1843,0231,-0790,0041,0002,0027,090.4843,022.9192,006.5935
156541025,-1842,0219,-0739,0038,0010,0025,089.3226,023.0607,007.2225
156546767,-1843,0227,-0753,0033,0010,0021,089.2597,021.5481,006.7242
156552533,-1831,0240,-0779,0033,0013,0020,088.9799,022.1583,007.0695
156558278,-1842,0240,-0762,0028,0012,0024,088.6491,022.9846,007.5325
156564056,-1845,0203,-0788,0029,0015,0020,088.3239,022.2095,007.4095
156569770,-1840,0218,-0748,0027,0014,0017,091.5313,023.1155,006.1234
156575601,-1845,0224,-0799,0023,0012,0023,089.1499,021.8111,006.8581
156581374,-1832,0224,-0773,0027,0015,0023,090.1427,023.4897,006.9358
156587148,-1843,0233,-0777,0029,0013,0021,089.4693,022.6156,006.9784
156592924,-1819,0226,-0786,0031,0009,0019,089.0094,022.7122,007.2401
156598630,-1825,0239,-0778,0033,0011,0018,089.7482,023.2806,007.0612
156604452,-1827,0218,-0764,0036,0009,0018,088.5444,022.8574,007.5241
156610175,-1834,0219,-0778,0031,0000,0018,089.9189,022.5086,006.7133
156615795,-1816,0231,-0790,0033,0002,0014,089.9492,022.8826,006.8200
156621596,-1825,0233,-0788,0031,0000,0016,089.3297,023.4119,007.3152
156627223,-1828,0241,-0752,0025,0004,0016,089.2403,023.1579,007.2715
156632921,-1821,0223,-0786,0022,0008,0016,087.9185,022.0750,007.5396
156638614,-1826,0232,-0787,0017,0008,0015,090.0900,023.3485,006.9050
156644322,-1828,0237,-0808,0014,0013,0014,089.1929,023.1248,007.2895
156650142,-1826,0232,-0767,0018,0014,0013,089.4077,023.7618,007.4040
156655923,-1826,0221,-0797,0015,0019,0018,088.8707,022.4710,007.2222
156661677,-1843,0201,-0788,0014,0019,0016,090.3528,023.5819,006.8535
156667455,-1838,0228,-0773,0022,0016,0013,091.3776,022.9535,006.1357
156673254,-1842,0227,-0789,0019,0015,0013,088.9720,022.6111,007.2168
156679034,-1833,0215,-0791,0028,0012,0015,089.7436,023.0975,006.9967
156684770,-1820,0229,-0739,0027,0011,0013,090.5107,023.2171,006.6452
156690604,-1847,0241,-0806,0023,0006,0014,088.3192,021.7914,007.2338
156696325,-1837,0206,-0794,0027,0008,0014,089.1864,023.6255,007.4622
156702066,-1838,0231,-0804,0025,0007,0018,091.2526,023.1940,006.2554
156707793,-1858,0226,-0783,0024,0008,0015,089.4217,023.4999,007.2894
156713481,-1845,0244,-0770,0018,0015,0016,089.5933,022.6143,006.8971
156719219,-1847,0216,-0773,0018,0017,0018,088.0246,022.4621,007.6254
156725027,-1837,0257,-0786,0019,0025,0016,090.3397,022.5961,006.5266
156730805,-1834,0237,-0777,0021,0024,0017,087.3674,023.0276,008.1872
156736567,-1844,0231,-0786,0029,0024,0017,089.0125,022.7641,007.2446
156742358,-1842,0232,-0764,0035,0029,0022,089.3787,022.9600,007.1267
156748114,-1838,0235,-0771,0043,0028,0020,088.7816,022.2939,007.1858
156753843,-1831,0226,-0806,0048,0024,0019,088.7994,022.6436,007.2992
156759610,-1839,0211,-0775,0049,0021,0017,090.1373,023.7541,006.9931
156765370,-1816,0233,-0763,0048,0019,0014,090.3824,022.5809,006.4800
156771158,-1827,0241,-0777,0053,0012,0017,088.5157,022.6330,007.4170
156776918,-1820,0231,-0775,0053,0012,0012,088.4915,022.9018,007.5242
156782665,-1804,0229,-0758,0051,0010,0016,089.1406,022.9043,007.1909
156788429,-1809,0239,-0799,0050,0010,0014,088.8328,022.6037,007.2346
156794154,-1797,0229,-0789,0044,0008,0012,089.0189,023.7966,007.5634
156799852,-1809,0229,-0783,0046,0005,0014,089.4528,023.5115,007.2297
156805560,-1824,0238,-0778,0039,0006,0014,089.2812,023.2098,007.2105
156811300,-1831,0224,-0789,0037,0005,0012,088.5589,022.8867,007.4627
156817016,-1830,0229,-0772,0036,0005,0012,089.8665,023.1965,006.9031
156822752,-1838,0210,-0765,0037,0004,0010,088.9731,022.6455,007.1616
156828473,-1825,0222,-0779,0034,0004,0010,090.3269,022.4410,006.4246
156834198,-1843,0217,-0783,0031,0007,0008,089.5485,023.0404,007.0063
156839852,-1836,0217,-0783,0034,0008,0012,090.0762,022.8586,006.6778
156845565,-1831,0236,-0801,0031,0007,0006,090.0095,022.9683,006.7451
156851205,-1845,0233,-0781,0031,0006,0009,089.0624,023.5172,007.4171
156856858,-1842,0220,-0790,0033,0004,0009,088.9769,022.6968,007.1692
156862537,-1844,0229,-0791,0031,0001,0010,090.0659,023.1136,006.7618
156868250,-1854,0243,-0797,0037,0002,0008,089.3200,023.0514,007.1162
156873937,-1858,0235,-0786,0039,0000,0009,088.5831,023.0885,007.5044
156879533,-1818,0219,-0797,0034,-0001,0003,088.9831,022.7342,007.1735
156885166,-1837,0222,-0789,0032,-0004,0005,090.2519,023.6184,006.8248
156890830,-1833,0227,-0758,0029,-0004,0003,089.7320,023.0264,006.8934
156896529,-1847,0238,-0758,0023,-0001,0005,088.8012,022.2190,007.0774
156902161,-1835,0226,-0776,0017,-0002,0004,088.1442,022.1361,007.3716
156907815,-1823,0202,-0775,0018,0001,0004,089.4683,022.8505,006.9718
156913524,-1828,0231,-0785,0009,0004,0006,090.9801,022.9118,006.2405
156919147,-1799,0226,-0762,0008,0004,0008,088.9510,023.0956,007.3239
156924735,-1827,0236,-0787,0007,0007,0005,089.0803,022.7773,007.1498
156930339,-1807,0232,-0787,0003,0012,0006,088.9040,023.1781,007.3867
156935993,-1827,0231,-0764,0001,0009,0007,089.2039,023.3839,007.3099
156941591,-1836,0226,-0793,0003,0013,0009,088.7800,022.4470,007.1971
156947250,-1824,0233,-0790,0008,0016,0008,089.7816,023.3064,006.9945
156952919,-1830,0245,-0788,0008,0017,0009,089.1177,023.2461,007.3186
156958602,-1840,0220,-0778,0013,0014,0010,088.3470,023.0981,007.6664
156964352,-1845,0235,-0797,0019,0017,0009,090.0089,022.7335,006.6989
156970089,-1816,0238,-0801,0021,0013,0008,089.1109,023.2632,007.3349
156975817,-1822,0230,-0790,0025,0012,0010,089.1083,023.6777,007.4844
156981568,-1833,0265,-0775,0023,0015,0009,089.4417,023.2223,007.1513
156987255,-1832,0244,-0773,0022,0013,0012,086.6576,022.6421,008.3666
156993063,-1825,0238,-0781,0019,0012,0011,088.4861,022.7083,007.4628
156998842,-1843,0230,-0764,0019,0012,0014,088.8016,023.0417,007.4260
157004591,-1834,0223,-0790,0013,0010,0015,088.9587,022.2666,007.0727
157010340,-1828,0247,-0773,0012,0009,0014,089.9818,023.2870,006.9136
157016077,-1831,0225,-0806,0005,0010,0008,087.7923,022.6579,007.8086
157021684,-1828,0226,-0771,0001,0011,0010,090.2760,023.7154,006.9113
157027379,-1837,0243,-0787,0001,0011,0013,089.2239,022.5890,007.0684
157033120,-1842,0233,-0764,-0002,0009,0012,088.5153,023.0734,007.6071
157038772,-1827,0228,-0749,-0001,0014,0012,088.8337,022.2843,007.1653
157044492,-1835,0230,-0810,0003,0018,0010,088.8403,022.1229,007.1092
157050182,-1833,0227,-0776,0007,0018,0011,089.9635,023.8709,007.1513
157055896,-1825,0227,-0789,0010,0018,0010,089.3525,022.6512,007.0487
157061647,-1816,0253,-0790,0011,0020,0012,089.7106,023.3140,007.0985
157067399,-1838,0240,-0803,0012,0021,0013,087.8826,023.3143,008.0550
157073178,-1826,0229,-0756,0018,0021,0012,089.3209,023.4447,007.3516
157078957,-1837,0215,-0786,0021,0021,0014,088.8968,022.1964,007.1232
157084743,-1827,0242,-0782,0016,0018,0013,090.5987,023.1595,006.6057
157090540,-1822,0234,-0787,0014,0018,0014,088.3314,022.9703,007.6964
157096328,-1844,0225,-0788,0013,0015,0016,089.3635,023.2297,007.2624
157102066,-1839,0220,-0786,0011,0011,0018,089.8539,022.9551,006.9196
157107885,-1848,0216,-0776,0012,0013,0012,090.1108,023.0046,006.8080
157113655,-1825,0225,-0766,0014,0018,0016,090.1570,022.5929,006.6495
157119471,-1826,0226,-0795,0014,0016,0012,089.2961,022.6226,007.0865
157125227,-1844,0250,-0775,0018,0018,0009,089.9570,023.4890,007.0500
157130912,-1813,0225,-0790,0017,0017,0014,087.7916,022.5072,007.8037
157136641,-1803,0239,-0794,0021,0019,0011,090.1218,023.5088,006.9751
157142465,-1819,0253,-0789,0020,0015,0015,088.9259,023.5986,007.6328
157148164,-1830,0240,-0778,0018,0016,0014,088.0334,023.2062,007.9583
157153946,-1833,0237,-0783,0014,0019,0013,088.8355,022.8093,007.4000
157159741,-1808,0250,-0798,0012,0020,0014,089.0389,022.9887,007.3646
157165465,-1819,0233,-0782,0014,0018,0014,088.4422,023.7065,007.9449
157171259,-1828,0234,-0770,0019,0028,0017,089.3683,023.0170,007.2112
157177041,-1834,0251,-0775,0020,0027,0014,088.9083,022.6338,007.3083
157182746,-1821,0238,-0770,0027,0026,0012,087.8986,022.7378,007.8597
157188532,-1824,0223,-0774,0028,0021,0016,088.8413,022.7553,007.3883
157194313,-1833,0235,-0746,0029,0021,0012,089.8677,022.8604,006.9081
157200084,-1826,0234,-0781,0030,0021,0013,088.2361,021.8702,007.3584
157205834,-1831,0238,-0771,0030,0017,0014,089.3159,023.1715,007.2931
157211561,-1847,0224,-0794,0027,0017,0013,088.6563,022.5973,007.4213
157217383,-1838,0224,-0782,0028,0015,0013,090.2267,023.1943,006.8358
157223155,-1847,0242,-0802,0031,0014,0015,089.7423,022.8566,006.9644
157228900,-1846,0223,-0790,0035,0016,0018,088.9712,023.3587,007.5334
157234679,-1834,0234,-0814,0034,0011,0017,090.1420,022.9743,006.7978
157240452,-1822,0242,-0799,0038,0014,0014,089.6841,023.8856,007.3405
157246217,-1826,0235,-0791,0038,0012,0011,088.8970,023.4413,007.5956
157252018,-1835,0243,-0774,0033,0014,0012,089.3323,023.2251,007.2906
157257780,-1830,0237,-0802,0033,0013,0012,088.3343,022.6187,007.5780
157263540,-1836,0236,-0775,0026,0017,0011,089.4943,023.6285,007.3476
157269329,-1821,0226,-0779,0022,0015,0010,088.8263,022.5884,007.3203
157275067,-1830,0229,-0800,0017,0017,0011,089.7180,023.0650,007.0406
157280827,-1834,0238,-0754,0014,0011,0012,089.8087,023.5098,007.1476
157286600,-1835,0219,-0787,0014,0007,0012,088.1758,021.9960,007.4289
157292299,-1824,0197,-0770,0015,0007,0011,090.4722,023.2200,006.7170
157298007,-1812,0210,-0781,0018,0001,0009,091.3954,022.7124,006.0975
157303695,-1814,0234,-0781,0019,0004,0010,090.5666,023.2315,006.6694
157309433,-1820,0225,-0800,0025,0002,0015,088.9752,023.1075,007.4382
157315074,-1821,0221,-0801,0029,0004,0012,090.1798,023.6293,006.9946
157320774,-1815,0236,-0798,0031,0005,0014,090.3113,023.5844,006.9081
157326492,-1822,0245,-0779,0030,0006,0012,089.2005,023.5544,007.4761
157332196,-1833,0237,-0814,0025,0009,0007,088.3406,022.8890,007.6794
157337864,-1842,0248,-0778,0021,0013,0010,089.7109,023.8862,007.3260
157343619,-1839,0235,-0786,0016,0014,0006,088.0403,022.5605,007.7116
157349352,-1855,0248,-0777,0016,0016,0007,089.3602,023.0376,007.2203
157355072,-1852,0232,-0776,0018,0020,0011,088.0920,022.4910,007.6644
157360822,-1839,0234,-0797,0017,0020,0009,089.3658,022.5926,007.0679
157366515,-1861,0226,-0762,0018,0021,0013,089.4851,023.3602,007.2773
157372292,-1842,0241,-0770,0020,0019,0013,089.3074,021.9634,006.8789
157378058,-1828,0247,-0796,0027,0017,0017,088.4239,022.6023,007.5432
157383861,-1806,0238,-0769,0032,0015,0016,088.7044,023.4660,007.7198
157389642,-1820,0234,-0786,0039,0014,0020,088.7005,022.8268,007.4838
157395407,-1816,0247,-0783,0039,0014,0021,089.3424,023.2460,007.3034
157401196,-1804,0249,-0770,0042,0012,0019,088.2721,023.1214,007.8090
157406987,-1802,0235,-0785,0042,0010,0021,087.9970,022.8991,007.8645
157412751,-1801,0238,-0775,0037,0010,0020,089.3057,023.4217,007.3779
157418444,-1782,0220,-0762,0029,0009,0017,088.7452,023.0755,007.5426
157424182,-1798,0228,-0785,0022,0005,0017,089.7341,022.9907,007.0080
157429913,-1810,0221,-0782,0018,0001,0017,089.5749,023.4631,007.2528
157435665,-1814,0201,-0757,0009,0000,0012,090.0211,023.1798,006.9280
157441205,-1809,0227,-0787,0006,-0002,0013,090.8584,022.4829,006.2875
157446901,-1814,0240,-0788,0004,0001,0014,089.5564,023.4522,007.2631
157452545,-1833,0212,-0795,0004,0002,0015,088.8512,023.2794,007.5719
157458218,-1843,0223,-0789,0006,0002,0014,091.0098,023.3101,006.4759
157463856,-1848,0219,-0765,0011,0005,0017,089.8647,022.9923,006.9516
157469606,-1832,0220,-0777,0012,0009,0011,089.8090,022.2591,006.7329
157475311,-1852,0238,-0794,0012,0009,0011,089.9941,022.9207,006.8653
157481029,-1839,0243,-0820,0014,0007,0004,089.0740,023.0519,007.3795
157486701,-1840,0218,-0783,0016,0005,0004,089.3776,023.9472,007.5433
157492383,-1861,0247,-0793,0021,0006,0002,090.3213,022.7840,006.6592
157498044,-1864,0251,-0787,0016,0004,0000,088.4339,022.9118,007.6577
157503596,-1851,0236,-0834,0018,0002,0000,088.2592,022.6870,007.6657
157509121,-1856,0221,-0788,0014,0003,0002,090.1450,024.2060,007.2270
157514767,-1834,0251,-0822,0014,0006,0004,090.1185,022.7235,006.7445
157520418,-1832,0238,-0802,0012,0008,0008,088.7813,024.1000,007.9277
157526065,-1830,0253,-0804,0010,0014,0005,089.4106,023.3970,007.3408
157531731,-1811,0242,-0794,0016,0016,0006,088.3811,023.5385,007.9372
157537455,-1814,0238,-0789,0013,0017,0007,089.0499,023.4863,007.5682
157543176,-1796,0238,-0790,0015,0020,0008,089.1389,023.3136,007.4620
157548872,-1802,0228,-0779,0015,0022,0005,089.1569,023.5913,007.5559
157554565,-1800,0230,-0774,0015,0028,0006,089.6135,023.1863,007.1773
157560230,-1812,0242,-0776,0015,0022,0010,089.3352,023.0987,007.2911
157565945,-1822,0247,-0773,0014,0022,0006,088.5815,022.9953,007.6436
157571692,-1825,0224,-0788,0013,0019,0012,088.2588,022.7810,007.7323
157577482,-1825,0243,-0779,0017,0013,0011,090.2712,023.2678,006.8799
157583357,-1810,0222,-0790,0014,0008,0010,088.3898,022.8771,007.7055
157589056,-1806,0235,-0802,0014,0005,0014,090.3653,023.4889,006.9075
157594788,-1814,0229,-0798,0013,-0001,0013,089.4748,023.8011,007.4824
157600545,-1821,0232,-0797,0012,-0003,0016,089.9234,023.5442,007.1575
157606205,-1803,0237,-0800,0009,-0005,0015,089.6377,023.4545,007.2767
157611818,-1809,0238,-0852,0008,-0006,0017,089.4032,023.7710,007.5140
157617452,-1813,0244,-0802,0015,-0001,0016,090.3413,025.1913,007.4949
157623131,-1812,0235,-0816,0016,0002,0019,088.8846,023.4911,007.6883
157628896,-1824,0227,-0813,0019,-0001,0014,089.9760,024.1529,007.3433
157634628,-1821,0239,-0816,0018,0004,0011,090.2949,023.8198,007.0597
157640353,-1821,0233,-0786,0021,0004,0011,089.5000,023.9744,007.5355
157646099,-1816,0225,-0811,0020,0007,0006,089.4234,023.0695,007.2558
157651692,-1819,0224,-0799,0015,0008,0009,090.4589,024.0074,007.0384
157657340,-1813,0224,-0801,0015,0011,0005,090.1799,023.5011,007.0162
157663048,-1831,0223,-0803,0014,0009,0003,090.2569,023.7013,007.0444
157668683,-1825,0217,-0798,0010,0007,0003,090.3537,023.5051,006.9301
157674335,-1812,0234,-0804,0014,0010,0000,090.6651,023.4680,006.7581
157679907,-1821,0227,-0783,0014,0004,0000,089.6019,023.7832,007.4216
157685443,-1831,0205,-0787,0018,0004,-0001,089.7822,023.0434,007.0715
157691111,-1832,0235,-0782,0019,0004,-0003,091.3895,023.1405,006.2928
157696787,-1823,0234,-0807,0019,0004,-0005,088.9777,022.9208,007.4374
157702438,-1845,0234,-0818,0016,0004,-0006,089.8699,023.8083,007.2917
157708077,-1828,0223,-0806,0013,0002,-0009,089.9726,023.7332,007.2141
157713760,-1835,0243,-0812,0010,0000,-0011,090.4801,023.6232,006.9142
157719344,-1825,0235,-0791,0007,-0004,-0009,089.2171,023.6886,007.6042
157724947,-1820,0230,-0789,0003,-0004,-0008,089.4768,023.2084,007.3016
157730546,-1833,0243,-0802,0001,-0002,-0007,089.7560,023.2762,007.1866
157736139,-1833,0242,-0809,0000,-0002,-0005,089.1211,023.4639,007.5890
157741638,-1816,0229,-0819,0001,-0006,-0001,089.3985,023.6424,007.5126
157747231,-1822,0232,-0801,0000,-0001,0002,090.4276,024.1581,007.1477
157752719,-1823,0243,-0804,0005,-0001,0003,089.7883,023.5052,007.2653
157758323,-1828,0257,-0793,0009,0002,0003,089.1824,023.6245,007.6296
157763911,-1832,0257,-0833,0016,0002,0004,088.1078,023.2047,008.0413
157769564,-1827,0254,-0788,0015,0007,0003,089.0591,024.3687,007.9762
157775184,-1823,0259,-0781,0020,0012,0006,088.2248,022.9981,007.9059
157780867,-1823,0241,-0782,0022,0012,0005,087.8334,022.9855,008.1078
157786605,-1838,0247,-0781,0026,0017,0004,089.1696,023.0509,007.4439
157792344,-1830,0246,-0778,0021,0018,0005,088.5399,022.8130,007.6804
157798082,-1832,0238,-0783,0024,0021,0009,088.6354,022.8596,007.6511
157803811,-1837,0238,-0806,0022,0021,0010,089.2918,022.9912,007.3656
157809579,-1837,0232,-0794,0020,0020,0013,089.6727,023.5977,007.3852
157815300,-1858,0239,-0786,0020,0012,0015,089.7843,023.1623,007.1745
157821057,-1835,0228,-0786,0021,0009,0019,089.1179,022.7115,007.3526
157826771,-1821,0234,-0798,0023,0007,0019,089.9729,023.0741,007.0472
157832489,-1833,0220,-0793,0025,0004,0018,089.6783,023.5533,007.3643
157838208,-1819,0238,-0775,0027,0003,0025,090.5781,023.2035,006.7778
157843894,-1821,0219,-0770,0031,0001,0022,088.8444,022.8641,007.5384
157849609,-1816,0215,-0800,0034,0000,0024,090.2794,022.7610,006.7766
157855181,-1812,0241,-0771,0037,0005,0019,090.9459,023.7284,006.7488
157860912,-1823,0242,-0777,0041,0005,0020,088.5012,022.7725,007.6689
157866616,-1819,0241,-0757,0039,0005,0019,088.8468,022.9237,007.5468
157872347,-1819,0247,-0802,0032,0005,0018,088.4275,022.3606,007.5476
157878082,-1837,0236,-0787,0033,0006,0017,089.0456,023.7946,007.7619
157883792,-1827,0222,-0807,0031,0005,0019,089.3890,022.9237,007.2656
157889541,-1835,0219,-0781,0031,0004,0017,090.7093,023.7898,006.8772
157895279,-1826,0234,-0769,0028,0004,0016,090.2146,022.7894,006.7963
157901033,-1859,0214,-0784,0033,-0002,0017,088.9579,022.6523,007.3743
157906770,-1830,0207,-0775,0027,-0004,0012,090.8503,022.7387,006.4607
157912473,-1816,0236,-0799,0029,-0007,0012,090.9209,022.8292,006.4507
157918267,-1826,0221,-0772,0023,-0006,0003,089.3271,023.6890,007.5568
157923898,-1821,0246,-0826,0023,-0007,0007,090.0526,022.6639,006.8273
157929541,-1830,0222,-0772,0024,-0006,0005,089.3454,024.4073,007.8076
157935260,-1842,0235,-0800,0027,-0007,0003,089.9964,022.5072,006.8015
157940904,-1832,0227,-0818,0028,-0006,0003,089.5721,023.4020,007.3234
157946554,-1821,0226,-0801,0028,-0005,0001,090.4987,023.9566,007.0254
157952254,-1847,0233,-0788,0026,-0007,0003,090.1237,023.5272,007.0764
157957917,-1822,0238,-0778,0019,-0002,0005,089.4406,022.8716,007.2002
157963590,-1830,0224,-0787,0015,0000,0007,088.9695,022.9557,007.4718
157969140,-1822,0226,-0772,0007,0006,0008,090.1689,023.1332,006.9259
157974744,-1838,0244,-0809,0003,0012,0009,089.6110,022.7738,007.0876
157980375,-1847,0238,-0798,0002,0021,0009,089.2061,023.6743,007.6216
157986070,-1844,0223,-0783,0005,0024,0010,089.4441,023.1451,007.3114
157991763,-1824,0233,-0796,0017,0025,0012,090.1538,022.8291,006.8438
157997519,-1840,0255,-0773,0028,0020,0012,089.6212,023.5031,007.3463
158003243,-1827,0247,-0769,0036,0013,0010,087.6858,022.4778,007.9580
158009017,-1840,0247,-0781,0039,0001,0009,088.4250,022.6659,007.6557
158014673,-1833,0259,-0785,0047,0000,0010,088.5766,022.8337,007.6390
158020255,-1828,0257,-0781,0052,-0007,0012,087.8286,022.9927,008.0824
158025953,-1816,0266,-0774,0050,-0011,0015,087.9498,022.9196,007.9878
158031681,-1786,0238,-0799,0050,-0013,0011,087.1535,022.8531,008.3730
158037459,-1788,0250,-0784,0050,-0014,0015,089.6464,024.0282,007.4973
158043151,-1822,0228,-0802,0047,-0013,0015,088.2901,023.4223,007.9932
158048917,-1767,0235,-0810,0040,-0010,0018,090.3020,023.6151,007.0015
158054604,-1794,0220,-0799,0038,-0002,0017,089.7121,024.4962,007.6167
158060343,-1791,0232,-0800,0036,0002,0020,090.5289,023.7828,006.9289
158065996,-1828,0219,-0772,0036,0003,0019,089.6661,023.9023,007.4217
158071715,-1816,0225,-0789,0037,-0001,0019,090.0841,022.6011,006.7572
158077440,-1825,0213,-0825,0036,0000,0022,089.9338,023.4239,007.1067
158083030,-1830,0218,-0770,0038,-0002,0025,091.3961,024.2660,006.6065
158088740,-1834,0212,-0779,0040,-0003,0027,089.8334,022.4750,006.8189
158094444,-1856,0227,-0770,0034,-0002,0026,090.6422,022.9318,006.5649
158100209,-1854,0244,-0776,0035,-0001,0025,089.2635,022.3051,007.0309
158105871,-1842,0208,-0769,0036,-0001,0021,088.3920,022.5636,007.5547
158111618,-1839,0210,-0816,0031,0000,0022,090.9292,022.5240,006.2857
158117271,-1846,0221,-0761,0026,-0004,0021,091.2809,023.9493,006.5462
158123030,-1855,0214,-0797,0029,-0004,0016,089.3894,022.0318,006.8638
158128739,-1842,0216,-0766,0022,-0002,0014,090.8564,023.2538,006.5433
158134497,-1847,0226,-0812,0022,-0005,0012,089.9099,022.3229,006.7079
158140205,-1845,0223,-0776,0019,-0003,0005,090.2507,023.7405,007.0096
158145850,-1816,0227,-0789,0014,0001,0006,089.7176,022.5405,006.8771
158151517,-1818,0219,-0790,0007,0005,0006,089.7666,023.4212,007.1567
158157195,-1832,0211,-0804,0008,0002,0003,090.3397,023.3244,006.8313
158162793,-1814,0209,-0773,0012,0001,0001,091.0752,023.5811,006.5370
158168448,-1827,0216,-0771,0012,0000,0003,090.5640,022.8801,006.5734
158173949,-1808,0215,-0799,0013,0001,0004,090.0947,022.7230,006.7558
158179639,-1820,0219,-0803,0016,0003,0004,090.7445,023.8149,006.7821
158185282,-1811,0235,-0777,0020,0000,0004,090.4650,023.6339,006.8681
158190810,-1833,0245,-0773,0025,0003,0001,088.9556,023.0031,007.4286
158196460,-1830,0238,-0809,0027,-0002,0005,088.2954,022.6424,007.6321
158202176,-1821,0233,-0782,0025,-0003,0006,089.6168,023.8159,007.3747
158207817,-1808,0254,-0789,0024,0001,0005,089.2393,022.9858,007.2785
158213463,-1827,0242,-0794,0024,0001,0007,088.0129,023.4145,008.0771
158219170,-1820,0237,-0785,0018,0007,0006,089.0864,023.2941,007.4713
158224833,-1801,0244,-0802,0015,0006,0008,089.0982,023.1398,007.4120
158230458,-1827,0222,-0799,0018,0005,0008,088.9788,023.8835,007.7473
158236164,-1844,0242,-0775,0019,0004,0013,090.4305,023.4118,006.8204
158241896,-1852,0229,-0804,0015,0001,0016,088.3434,022.5150,007.5654
158247590,-1847,0215,-0798,0013,0000,0020,090.1042,023.4056,006.9880
158253180,-1835,0223,-0783,0014,-0001,0021,090.7178,023.2059,006.6082
158258881,-1852,0223,-0797,0014,-0002,0022,089.7989,022.9203,006.9767
158264620,-1849,0206,-0783,0018,-0004,0020,090.1983,023.1599,006.8545
158270342,-1837,0224,-0798,0017,-0003,0018,091.0689,022.7777,006.2953
158276148,-1830,0211,-0774,0016,-0005,0015,089.9589,023.4086,007.0581
158281846,-1840,0222,-0776,0021,0001,0015,090.5731,022.7083,006.5156
158287543,-1834,0237,-0774,0025,0001,0012,089.7447,022.7192,006.9277
158293241,-1847,0236,-0777,0024,0002,0010,088.7524,022.7095,007.4217
158298898,-1835,0238,-0784,0023,0000,0009,089.0215,022.6413,007.2628
158304419,-1835,0235,-0774,0022,0002,0004,089.0049,022.9939,007.3995
158310136,-1807,0247,-0772,0023,0002,0005,089.0064,022.6625,007.2805
158315801,-1830,0244,-0803,0022,0000,0006,088.1488,022.9694,007.8327
158321358,-1834,0258,-0781,0020,0003,0006,089.0877,023.5638,007.5666
158326971,-1813,0228,-0793,0021,0006,0007,087.5911,022.7866,008.0548
158332636,-1826,0226,-0769,0025,0004,0008,090.0587,023.5423,007.0558
158338289,-1815,0255,-0776,0026,0006,0011,089.4132,022.5851,007.0540
158344002,-1823,0224,-0769,0027,0009,0010,087.6217,022.9963,008.1195
158349709,-1822,0234,-0800,0029,0004,0009,089.8595,022.6840,006.8668
158355356,-1821,0228,-0782,0030,0003,0009,089.5097,023.6477,007.3769
158360980,-1831,0234,-0794,0030,0002,0007,089.6035,023.0154,007.1063
158366587,-1825,0237,-0806,0029,-0004,0009,089.4171,023.3025,007.3009
158372253,-1812,0224,-0778,0025,-0009,0011,089.4696,023.6926,007.4105
158377967,-1832,0231,-0799,0022,-0009,0009,089.7918,023.0062,007.0051
158383640,-1842,0238,-0794,0020,-0008,0013,089.6849,023.4451,007.2105
158389349,-1811,0241,-0808,0016,-0007,0018,089.1162,023.1036,007.3844
158395113,-1837,0228,-0799,0015,-0003,0015,089.2787,023.9722,007.6127
158400778,-1847,0242,-0819,0013,0003,0017,089.9524,023.2722,007.0152
158406503,-1843,0234,-0795,0016,0003,0015,089.3254,023.7920,007.5245
158412205,-1839,0233,-0816,0015,0007,0013,089.4714,023.0913,007.2019
158417919,-1851,0230,-0783,0018,0011,0013,089.9352,023.8508,007.2242
158423716,-1852,0231,-0777,0017,0008,0012,089.4226,022.6256,007.0645
158429430,-1847,0236,-0781,0020,0007,0012,089.3036,022.6007,007.1157
158435104,-1822,0239,-0773,0023,0005,0013,089.0551,022.7744,007.3022
158440851,-1814,0232,-0783,0022,0002,0016,088.7015,022.8187,007.4980
158446585,-1825,0223,-0799,0019,0001,0013,089.4522,023.2240,007.2611
158452329,-1830,0233,-0789,0025,-0002,0017,090.3015,023.5253,006.9238
158458098,-1843,0241,-0796,0024,-0002,0015,089.2741,023.0991,007.3052
158463777,-1834,0218,-0771,0023,-0001,0011,089.0252,023.1918,007.4669
158469486,-1826,0226,-0759,0030,-0002,0009,090.1600,022.5836,006.6829
158475145,-1815,0236,-0785,0031,-0002,0006,089.1905,022.3953,007.0939
158480787,-1835,0223,-0777,0031,0001,0011,089.1415,023.3125,007.4445
158486506,-1820,0257,-0786,0034,0005,0010,089.8957,022.7299,006.8561
158492232,-1825,0231,-0787,0033,0002,0011,087.5952,023.2149,008.2122
158497963,-1814,0234,-0790,0030,0001,0009,089.7554,023.1533,007.0681
158503598,-1818,0242,-0782,0029,0003,0012,089.3009,023.3845,007.3817
158509301,-1839,0249,-0779,0025,-0001,0012,088.6342,023.0531,007.6069
158514990,-1831,0225,-0779,0023,-0003,0015,088.1713,022.7320,007.7248
158520644,-1824,0224,-0804,0017,0000,0014,089.9053,022.9117,006.9137
158526252,-1832,0235,-0775,0015,0000,0016,090.2362,023.7167,007.0144
158531834,-1833,0239,-0781,0011,-0004,0017,088.8747,022.6560,007.3444
158537582,-1828,0245,-0761,0009,0002,0013,088.8890,022.9391,007.4434
158543257,-1818,0223,-0802,0010,0006,0015,088.0382,022.3576,007.6597
158548910,-1834,0233,-0776,0009,0010,0012,090.5428,023.8273,006.9016
158554604,-1827,0249,-0784,0016,0009,0012,088.9999,022.6359,007.2840
158560321,-1837,0226,-0759,0016,0010,0011,088.2660,023.0944,007.8310
158566077,-1835,0231,-0786,0023,0011,0010,089.4729,022.1860,006.8965
158571841,-1852,0229,-0787,0027,0009,0009,089.5082,023.1564,007.2160
158577523,-1838,0243,-0764,0030,0005,0011,089.6565,022.8328,007.0269
158583225,-1838,0231,-0789,0035,0001,0009,088.1568,022.3357,007.5954
158588879,-1842,0230,-0778,0037,-0005,0013,089.7168,023.1611,007.1051
158594624,-1822,0229,-0774,0037,-0013,0009,089.3573,022.6746,007.1146
158600373,-1825,0243,-0789,0032,-0010,0009,089.3895,022.8747,007.1670
158606073,-1834,0226,-0771,0029,-0010,0008,088.7204,023.2377,007.6402
158611754,-1830,0251,-0806,0026,-0002,0005,089.6269,022.5690,006.9421
158617432,-1837,0240,-0777,0024,-0001,0012,088.5103,023.7091,007.9286
158623120,-1845,0247,-0766,0019,0002,0012,088.7946,022.6340,007.3838
158628831,-1837,0246,-0782,0022,0004,0013,088.0259,022.3314,007.6572
158634562,-1838,0249,-0774,0025,0006,0016,088.5599,022.9553,007.6238
158640297,-1825,0243,-0770,0034,0009,0017,088.1006,022.6106,007.7275
158646044,-1826,0260,-0784,0044,0010,0015,088.4998,022.7114,007.5613
158651792,-1824,0250,-0756,0052,0009,0015,087.5653,023.0799,008.1819
158657484,-1828,0224,-0822,0051,0007,0013,087.7465,022.2401,007.7566
158663207,-1821,0224,-0767,0054,0008,0014,090.8876,024.3242,006.8651
158668941,-1800,0237,-0756,0049,0003,0015,089.3790,022.5005,007.0257
158674621,-1816,0241,-0798,0048,0002,0019,088.4275,022.6158,007.5376
158680360,-1815,0226,-0791,0044,-0004,0015,089.1313,023.6768,007.5598
158686061,-1806,0228,-0775,0037,-0005,0019,089.8989,023.3481,007.0400
158691781,-1821,0223,-0778,0033,-0005,0022,089.3387,023.0282,007.2131
158697502,-1833,0213,-0771,0029,-0010,0028,089.7997,022.9686,006.9559
158703266,-1836,0219,-0791,0031,-0002,0026,090.3151,022.6295,006.5828
158709031,-1827,0216,-0771,0036,-0008,0023,090.1955,023.2371,006.8368
158714753,-1812,0249,-0786,0031,-0005,0023,090.0207,022.6688,006.7325
158720487,-1831,0231,-0799,0033,-0010,0021,088.0428,023.3300,007.9767
158726251,-1846,0224,-0772,0034,-0007,0017,089.8258,023.4173,007.0754
158732025,-1847,0233,-0777,0036,-0003,0012,089.5049,022.4221,006.8941
158737698,-1844,0227,-0802,0029,-0003,0014,089.0142,022.6811,007.2267
158743411,-1857,0228,-0782,0030,0001,0011,089.9952,023.4365,006.9876
158749101,-1850,0231,-0785,0026,0002,0010,089.4038,022.5953,006.9992
158754785,-1851,0226,-0801,0027,0006,0006,089.3315,022.8644,007.1287
158760432,-1844,0208,-0739,0024,0008,0007,089.9915,023.2912,006.9392
158766084,-1849,0225,-0795,0025,0005,0006,089.9523,021.5358,006.3763
158771715,-1840,0221,-0801,0027,0008,0007,089.8701,023.3116,007.0059
158777364,-1858,0206,-0773,0028,0006,0010,090.2596,023.3834,006.8280
158783064,-1837,0221,-0808,0025,0003,0012,090.7221,022.3557,006.2667
158788761,-1836,0217,-0803,0028,0001,0010,090.2726,023.7618,006.9411
158794443,-1830,0216,-0790,0025,-0003,0010,090.5038,023.4390,006.7138
158800113,-1800,0225,-0764,0025,-0002,0010,090.2946,023.1731,006.7321
158805730,-1802,0238,-0778,0016,-0004,0011,089.2219,022.8124,007.1520
158811457,-1798,0218,-0788,0016,-0001,0009,088.6980,023.2091,007.5641
158817127,-1810,0235,-0798,0010,0004,0009,090.2987,023.5403,006.8527
158822787,-1791,0220,-0796,0005,0010,0009,089.1895,023.6260,007.4645
158828417,-1839,0225,-0763,0003,0012,0004,090.2708,023.8199,006.9658
158834051,-1826,0235,-0774,0002,0018,0004,089.1855,022.2243,006.9765
158839733,-1830,0235,-0785,0002,0018,0009,088.8476,022.8856,007.3846
158845420,-1828,0236,-0794,0008,0019,0011,089.1342,023.0752,007.3104
158851165,-1849,0237,-0778,0013,0018,0012,089.2197,023.3442,007.3646
158856996,-1864,0225,-0777,0021,0011,0010,088.8036,022.5532,007.2944
158862753,-1852,0237,-0791,0024,0012,0011,089.6920,022.4752,006.8279
158868518,-1846,0250,-0786,0032,0004,0009,089.0217,023.0287,007.3552
158874161,-1860,0237,-0761,0029,0003,0011,088.1249,022.8586,007.7518
158879909,-1844,0234,-0776,0033,0005,0010,088.5942,021.9917,007.1958
158885595,-1833,0239,-0752,0031,0006,0012,089.0662,022.7499,007.2352
158891296,-1834,0234,-0773,0029,0002,0011,088.1201,022.0575,007.4515
158897016,-1825,0238,-0793,0029,0002,0011,089.0746,022.7813,007.2426
158902733,-1828,0231,-0762,0025,0004,0015,089.0772,023.3869,007.4578
158908452,-1809,0219,-0758,0022,0007,0013,088.9154,022.3535,007.1703
158914189,-1816,0220,-0766,0022,0007,0015,089.6945,022.6111,006.8758
158919981,-1824,0237,-0785,0019,0009,0015,089.7061,022.7370,006.9130
158925689,-1818,0228,-0769,0024,0009,0015,088.8958,023.1684,007.4753
158931378,-1832,0230,-0790,0026,0012,0014,089.3012,022.7261,007.1116
158937131,-1822,0244,-0787,0027,0009,0012,089.5494,023.2319,007.1613
158942837,-1815,0236,-0787,0022,0010,0009,088.4819,023.1711,007.6919
158948546,-1820,0238,-0804,0018,0005,0010,089.1806,023.2796,007.3714
158954243,-1823,0229,-0822,0017,0008,0014,089.3008,023.7088,007.4627
158959974,-1835,0211,-0823,0016,0006,0013,090.2408,024.1596,007.1179
158965719,-1843,0217,-0770,0017,0009,0010,091.3358,023.9985,006.4845
158971415,-1844,0213,-0785,0019,0007,0013,089.7766,022.3563,006.7438
158977151,-1833,0238,-0787,0024,0005,0012,090.5643,023.0041,006.5661
158982852,-1826,0236,-0783,0025,0008,0007,088.7498,023.0725,007.5094
158988506,-1825,0226,-0779,0029,0002,0007,089.0491,023.0335,007.3419
158994179,-1822,0235,-0773,0029,0001,0008,089.6225,022.9474,007.0198
158999838,-1824,0228,-0770,0032,0003,0002,088.8034,022.8046,007.3828
159005495,-1804,0236,-0781,0029,0002,0002,089.3269,022.7185,007.0890
159011153,-1828,0240,-0803,0024,0003,0006,088.9412,023.2844,007.4874
159016776,-1821,0232,-0788,0021,0005,0006,089.1593,023.5655,007.4762
159022442,-1833,0227,-0793,0016,0008,0008,089.3767,023.1909,007.2325
159028101,-1814,0236,-0773,0017,0008,0010,089.7938,023.2428,007.0375
159033808,-1822,0239,-0807,0013,0008,0010,088.7202,022.8694,007.4561
159039519,-1820,0233,-0804,0011,0011,0012,089.3522,023.8331,007.4773
159045292,-1826,0237,-0801,0010,0014,0009,089.6235,023.6397,007.2687
159051001,-1834,0252,-0789,0010,0014,0007,089.2587,023.4953,007.4123
159056699,-1827,0231,-0769,0008,0011,0009,088.0450,023.0320,007.8779
159062365,-1830,0228,-0773,0012,0011,0008,089.2378,022.6217,007.1244
159068095,-1824,0233,-0809,0016,0010,0005,089.3954,022.7610,007.0965
159073787,-1819,0232,-0772,0017,0008,0011,089.7506,023.8885,007.3059
159079494,-1831,0249,-0794,0018,0006,0011,089.0310,022.7095,007.2640
159085221,-1830,0239,-0778,0023,0005,0013,088.4076,023.3312,007.8138
159090949,-1855,0247,-0786,0028,0007,0013,088.8484,022.7935,007.3881
159096680,-1822,0242,-0772,0026,0002,0013,088.4046,022.7807,007.6092
159102423,-1826,0267,-0772,0030,0003,0009,088.5106,022.7835,007.5569
159108059,-1813,0246,-0766,0028,0005,0010,086.7736,022.6908,008.4143
159113752,-1845,0230,-0791,0029,0003,0008,088.2921,022.7200,007.6489
159119406,-1816,0227,-0771,0030,0000,0009,089.7526,023.0843,007.0374
159124930,-1840,0224,-0782,0028,0001,0009,089.3907,022.8244,007.1294
159130611,-1826,0219,-0787,0025,0004,0007,089.8578,022.8804,006.9137
159136263,-1824,0238,-0769,0021,-0003,0009,090.2403,023.2026,006.8276
159141924,-1815,0246,-0773,0028,0001,0012,088.5003,022.6252,007.5044
159147615,-1818,0212,-0758,0029,-0003,0012,088.2422,022.9096,007.7428
159153320,-1813,0223,-0788,0027,-0001,0016,090.3259,022.4508,006.5389
159159051,-1821,0229,-0770,0025,0000,0010,089.9180,023.4532,007.0752
159164610,-1848,0225,-0778,0026,0000,0015,089.2018,022.6955,007.1760
159170172,-1827,0222,-0785,0024,0004,0012,089.7084,022.6787,006.9172
159175916,-1831,0235,-0781,0023,0007,0014,090.0083,023.1646,006.9300
159181624,-1834,0226,-0783,0022,0005,0013,088.9685,022.8999,007.3665
159187355,-1840,0230,-0775,0020,0012,0011,089.7933,022.9757,006.9762
159193091,-1858,0233,-0779,0018,0011,0012,089.2269,022.6434,007.1461
159198909,-1833,0226,-0766,0019,0012,0014,089.1798,022.5823,007.1491
159204675,-1860,0223,-0777,0025,0012,0011,089.4181,022.5209,007.0094
159210405,-1831,0226,-0798,0024,0012,0010,089.8231,022.5309,006.8130
159216121,-1835,0245,-0767,0027,0008,0009,089.9783,023.5169,007.0666
159221802,-1840,0229,-0779,0025,0005,0010,087.9857,022.3761,007.6710
159227476,-1827,0239,-0782,0029,0006,0009,089.6315,022.8432,007.0162
159233150,-1848,0230,-0783,0027,0008,0006,088.7844,023.0191,007.5088
159238820,-1850,0244,-0773,0027,0006,0009,089.5358,022.7796,007.0425
159244475,-1824,0235,-0820,0028,0011,0009,088.2674,022.4714,007.5667
159250228,-1831,0230,-0802,0026,0011,0009,090.0161,024.2760,007.3039
159255934,-1834,0238,-0762,0027,0013,0009,089.7534,023.3930,007.1391
159261680,-1835,0265,-0777,0032,0010,0009,088.3766,022.2541,007.4267
159267354,-1843,0239,-0774,0037,0015,0012,087.0372,022.8074,008.3218
159273137,-1818,0253,-0785,0042,0014,0013,088.9720,022.5865,007.2505
159278925,-1826,0249,-0789,0045,0017,0017,087.9358,023.2506,008.0271
159284672,-1806,0247,-0774,0052,0013,0016,088.4522,023.1715,007.7234
159290495,-1794,0234,-0770,0054,0011,0018,088.1776,022.9900,007.7929
159296311,-1809,0226,-0769,0051,0009,0017,089.0059,023.0647,007.3903
159302010,-1797,0221,-0778,0047,0007,0021,089.4348,022.8532,007.0929
159307733,-1811,0223,-0801,0038,0003,0016,089.9038,023.2926,007.0016
159313440,-1821,0203,-0808,0036,-0001,0023,090.1509,023.7532,007.0237
159319150,-1827,0232,-0788,0030,-0001,0020,091.6187,023.8007,006.2695
159324874,-1833,0214,-0804,0023,0001,0023,089.0011,023.0743,007.3750
159330562,-1810,0216,-0802,0020,0000,0025,090.9116,023.6010,006.5688
159336099,-1845,0203,-0782,0020,0003,0024,090.4974,023.7616,006.8323
159341768,-1837,0209,-0809,0023,0000,0021,091.0682,022.7365,006.2172
159347377,-1837,0232,-0777,0024,0001,0021,091.0598,023.7381,006.5262
159353077,-1850,0215,-0796,0029,0004,0019,088.8415,022.6393,007.2850
159358858,-1845,0220,-0795,0029,0001,0017,090.7148,023.2125,006.5345
159364581,-1842,0228,-0762,0034,0007,0015,090.0817,023.1594,006.8338
159370312,-1846,0229,-0774,0033,0004,0019,088.9105,022.2063,007.0868
159376051,-1837,0224,-0785,0032,0003,0010,089.2640,022.6465,007.0665
159381740,-1864,0225,-0763,0032,0006,0008,089.7907,023.0326,006.9332
159387370,-1850,0226,-0789,0030,0005,0008,089.2059,022.0214,006.8744
159392978,-1863,0214,-0786,0029,0009,0004,089.7266,023.0531,006.9708
159398650,-1831,0232,-0778,0028,0003,0002,090.4355,022.7052,006.5008
159404303,-1844,0223,-0783,0029,0004,0002,088.9287,022.8769,007.3107
159409962,-1839,0238,-0773,0026,0005,0001,089.8506,022.8557,006.8395
159415611,-1836,0240,-0777,0028,0010,0001,088.4864,022.6034,007.4347
159421300,-1828,0219,-0806,0023,0006,0002,088.6045,022.7867,007.4447
159426927,-1812,0224,-0777,0019,0003,0004,090.6001,023.7500,006.7511
159432595,-1803,0239,-0809,0018,0002,0005,089.4718,022.9807,007.0747
159438238,-1811,0228,-0777,0014,0007,0002,089.2144,024.1019,007.6064
159443896,-1798,0222,-0791,0013,0009,0009,089.3496,022.9604,007.1349
159449601,-1804,0217,-0812,0012,0012,0009,090.0222,023.6560,007.0287
159455322,-1825,0221,-0741,0009,0012,0008,090.6878,024.1372,006.8372
159461002,-1811,0238,-0796,0007,0014,0007,088.9568,021.7614,006.9109
159466646,-1821,0224,-0779,0006,0014,0007,089.0969,023.7841,007.5642
159472306,-1811,0225,-0808,0001,0013,0008,089.7036,022.9193,006.9522
159477952,-1807,0219,-0759,0009,0011,0006,090.1354,024.0091,007.0988
159483608,-1823,0229,-0790,0007,0010,0009,089.5599,022.5350,006.8975
159489249,-1833,0238,-0783,0010,0009,0013,089.5366,023.3659,007.1975
159494981,-1834,0250,-0778,0015,0008,0012,088.7731,022.9023,007.4267
159500644,-1818,0230,-0764,0019,0003,0016,087.9456,022.7838,007.8070
159506351,-1825,0238,-0786,0023,0001,0013,089.1406,022.6132,007.1421
159512082,-1830,0229,-0778,0024,0002,0013,088.9037,023.2019,007.4732
159517808,-1827,0237,-0781,0025,0001,0015,089.4018,022.8245,007.0851
159523469,-1830,0235,-0787,0026,-0006,0011,088.8355,022.9891,007.4304
159529209,-1836,0246,-0782,0024,-0001,0012,089.1784,023.1149,007.3004
159534903,-1818,0238,-0766,0025,-0002,0009,088.2673,022.8547,007.6727
159540548,-1818,0237,-0785,0021,0003,0008,088.5955,022.6542,007.4340
159546222,-1834,0245,-0778,0027,0004,0009,089.0377,023.2472,007.4241
159551905,-1844,0234,-0757,0025,0007,0011,088.2788,022.7494,007.6316
159557621,-1831,0230,-0802,0025,0006,0009,088.7005,022.0803,007.1769
159563236,-1861,0224,-0775,0020,0010,0006,089.8527,023.6709,007.1552
159568867,-1839,0239,-0776,0024,0007,0012,089.5916,022.3431,006.8338
159574567,-1831,0216,-0775,0023,0008,0010,088.5835,022.7582,007.4826
159580242,-1836,0230,-0782,0020,0005,0012,090.3238,022.8048,006.6269
159585938,-1840,0237,-0794,0027,0005,0012,089.2409,022.9246,007.2090
159591650,-1850,0222,-0778,0023,0005,0014,089.1447,023.2035,007.3573
159597366,-1822,0217,-0763,0025,0001,0013,089.8751,022.5927,006.7773
159603079,-1822,0222,-0754,0026,0006,0014,089.8294,022.5780,006.7934
159608820,-1821,0234,-0773,0022,0000,0012,089.2868,022.3010,006.9648
159614399,-1835,0209,-0796,0023,-0001,0011,088.9111,022.8873,007.3599
159620109,-1821,0222,-0781,0015,0001,0010,091.1648,023.3730,006.3788
159625792,-1798,0234,-0802,0013,-0001,0012,089.6675,023.0195,007.0228
159631486,-1825,0231,-0796,0015,0004,0008,089.4569,023.9585,007.4604
159637120,-1810,0255,-0804,0013,0005,0010,089.5675,023.3317,007.1849
159642809,-1826,0238,-0781,0017,0010,0011,088.1007,023.8008,008.1348
159648529,-1832,0235,-0783,0020,0004,0008,088.9820,022.8716,007.3289
159654194,-1826,0222,-0771,0018,0004,0010,089.1099,022.9863,007.3067
159659892,-1826,0213,-0782,0023,0002,0012,089.7586,022.7085,006.8835
159665589,-1832,0238,-0786,0027,-0004,0009,090.5335,023.0867,006.6189
159671270,-1831,0242,-0786,0026,-0003,0012,088.7559,023.0398,007.5049
159676982,-1855,0230,-0777,0027,-0002,0014,088.7131,023.0528,007.5318
159682753,-1840,0233,-0771,0024,-0003,0012,089.3707,022.5038,007.0047
159688415,-1844,0234,-0815,0023,-0002,0013,088.9423,022.5789,007.2440
159694132,-1833,0229,-0803,0020,-0003,0013,089.8166,023.8202,007.2307
159699824,-1820,0217,-0785,0021,-0002,0013,089.8095,023.4507,007.1073
159705528,-1821,0234,-0772,0020,0000,0011,090.2900,023.1489,006.7595
159711110,-1831,0241,-0806,0016,-0002,0015,088.8030,022.7684,007.3807
159716830,-1827,0224,-0774,0013,0001,0014,089.1876,023.6913,007.5171
159722556,-1835,0219,-0767,0011,0005,0013,089.6668,022.6898,006.9229
159728276,-1828,0238,-0796,0011,0010,0014,089.8198,022.5205,006.7915
159734043,-1808,0223,-0797,0013,0006,0016,089.0513,023.4859,007.5199
159739758,-1820,0238,-0750,0012,0012,0013,090.2092,023.6498,006.9729
159745501,-1843,0235,-0764,0010,0011,0013,088.0555,022.0716,007.5038
159751267,-1846,0227,-0815,0014,0015,0009,088.8625,022.3987,007.2309
159756978,-1826,0227,-0786,0013,0012,0011,090.3278,023.8346,006.9815
159762793,-1827,0236,-0790,0018,0014,0012,089.5613,023.0235,007.1032
159768549,-1835,0236,-0781,0022,0011,0009,089.1383,023.2425,007.3977
159774258,-1806,0238,-0776,0021,0013,0009,089.0159,022.8418,007.3181
159780007,-1831,0250,-0807,0024,0013,0010,088.7928,023.1045,007.5284
159785715,-1818,0227,-0769,0026,0006,0010,088.6531,023.6577,007.8070
159791417,-1809,0234,-0741,0025,0004,0008,089.4544,022.6715,007.0395
159797050,-1821,0238,-0750,0028,-0002,0007,088.3019,022.0659,007.3905
159802710,-1819,0216,-0762,0025,-0005,0009,088.3056,022.2263,007.4499
159808372,-1831,0234,-0783,0025,-0005,0009,090.1147,022.6213,006.6972
159814007,-1824,0240,-0788,0025,-0003,0010,089.0802,023.0297,007.3563
159819705,-1823,0215,-0801,0027,-0002,0011,088.8983,023.2064,007.5137
159825416,-1845,0221,-0790,0026,0001,0007,090.9180,023.6256,006.6108
159831074,-1824,0225,-0796,0027,0004,0013,090.0110,022.9636,006.8551
159836795,-1831,0235,-0794,0025,0002,0012,089.9556,023.4844,007.0573
159842496,-1839,0231,-0782,0030,0005,0013,089.2333,023.2457,007.3465
159848223,-1835,0221,-0776,0025,0005,0014,089.3586,022.8258,007.1342
159853919,-1846,0238,-0784,0025,0002,0012,089.9242,022.7675,006.8303
159859585,-1814,0225,-0779,0022,0002,0011,088.8295,022.8495,007.4094
159865323,-1843,0231,-0785,0018,0003,0010,089.7655,023.1109,007.0271
159871019,-1826,0230,-0783,0016,0004,0007,089.3557,022.8840,007.1577
159876704,-1831,0232,-0751,0013,0004,0009,089.4397,023.0690,007.1820
159882330,-1825,0231,-0774,0012,0006,0008,088.6235,022.0434,007.2251
159887974,-1839,0238,-0785,0009,0009,0003,089.2931,022.9191,007.2108
159893574,-1851,0230,-0767,0011,0013,0008,088.9633,022.9500,007.3926
159899303,-1833,0240,-0789,0008,0015,0007,089.1915,022.2780,007.0429
159904946,-1823,0230,-0773,0015,0015,0012,088.9315,023.2252,007.5152
159910705,-1840,0248,-0799,0023,0014,0013,089.3319,022.7639,007.1466
159916483,-1840,0252,-0795,0032,0015,0012,088.5744,023.3664,007.7534
159922232,-1825,0242,-0783,0040,0013,0014,088.3242,023.1524,007.8022
159927989,-1846,0249,-0775,0046,0012,0020,088.7837,023.0285,007.5153
159933687,-1824,0252,-0777,0055,0008,0014,088.0551,022.5377,007.6982
159939391,-1834,0248,-0758,0051,0002,0017,087.9726,022.9274,007.8867
159945110,-1822,0247,-0771,0049,-0001,0019,087.8200,022.1816,007.6735
159950847,-1819,0250,-0778,0046,-0003,0017,088.2046,022.8280,007.7245
159956538,-1808,0227,-0795,0039,-0005,0022,088.0893,022.9782,007.8393
159962284,-1809,0235,-0789,0034,-0004,0020,090.0356,023.6465,007.0661
159967966,-1827,0242,-0782,0036,0000,0021,089.1193,023.3590,007.4404
159973583,-1813,0219,-0789,0033,0000,0019,088.5977,022.9473,007.5583
159979184,-1830,0232,-0759,0031,0001,0023,090.3472,023.4095,006.8198
159984906,-1833,0210,-0759,0032,0001,0016,088.6211,022.2306,007.2761
159990653,-1834,0229,-0764,0033,0003,0019,090.4527,022.3793,006.4322
159996372,-1845,0216,-0782,0028,0000,0016,088.9065,022.4681,007.2173
160002010,-1842,0228,-0799,0024,-0002,0021,090.3932,022.8707,006.6148
160007739,-1822,0221,-0785,0025,0002,0018,089.7091,023.3481,007.1186
160013447,-1848,0219,-0744,0022,0003,0020,090.0061,023.1308,006.8917
160019154,-1833,0227,-0772,0020,0006,0017,089.2578,021.6199,006.7434
160024858,-1839,0222,-0797,0017,0004,0013,089.3815,022.8414,007.1080
160030643,-1836,0233,-0766,0020,0005,0015,090.2254,023.3467,006.8505
160036316,-1830,0236,-0783,0020,0003,0011,088.7029,022.3740,007.2802
160041989,-1821,0219,-0770,0026,0000,0009,089.0579,023.0776,007.3555
160047530,-1827,0242,-0811,0026,0002,0006,089.9088,022.7462,006.8110
160053166,-1816,0225,-0775,0025,0000,0001,089.0776,023.8801,007.6355
160058644,-1830,0238,-0775,0025,-0001,0004,089.5887,022.8898,007.0208
160064241,-1834,0236,-0793,0019,0003,0005,088.6484,022.7666,007.4534
160069895,-1851,0223,-0803,0020,0002,0005,089.2769,023.2678,007.3143
160075513,-1832,0222,-0790,0013,0000,0002,090.2669,023.3032,006.8197
160081094,-1830,0220,-0795,0014,0004,0002,089.9867,023.1605,006.9163
160086761,-1825,0240,-0803,0014,0006,0003,090.2557,023.3541,006.8445
160092397,-1824,0233,-0795,0016,0007,0004,089.0240,023.5965,007.5707
160098089,-1840,0225,-0788,0016,0003,0003,089.4985,023.3511,007.2377
160103712,-1839,0228,-0786,0016,0008,0007,089.8432,022.9946,006.9403
160109412,-1812,0249,-0761,0016,0007,0008,089.5551,022.9839,007.0834
160115107,-1819,0247,-0795,0012,0007,0005,087.6342,022.5492,007.9007
160120788,-1851,0241,-0790,0012,0010,0010,088.7415,023.5419,007.7095
160126494,-1832,0224,-0781,0012,0010,0013,088.8984,022.8685,007.3851
160132252,-1827,0235,-0767,0016,0010,0016,089.8924,022.9479,006.9116
160138023,-1838,0238,-0802,0020,0011,0016,088.6647,022.5589,007.3913
160143784,-1832,0244,-0784,0025,0008,0010,089.3779,023.5254,007.3746
160149445,-1842,0240,-0788,0027,0005,0015,088.4939,022.9203,007.6126
160155155,-1844,0247,-0759,0029,0006,0018,088.9649,022.9969,007.3994
160160886,-1831,0242,-0794,0032,0002,0021,087.7623,022.0844,007.6616
160166610,-1826,0245,-0791,0035,0002,0017,089.0560,023.4373,007.5087
160172333,-1838,0246,-0753,0037,0000,0019,088.5990,023.2065,007.6603
160177972,-1830,0226,-0779,0035,0002,0018,087.7524,021.9688,007.6187
160183690,-1833,0229,-0770,0032,0002,0016,089.8673,023.0412,006.9530
160189441,-1831,0217,-0809,0035,-0001,0015,089.1526,022.5659,007.1443
160195115,-1819,0229,-0760,0033,0000,0014,090.8484,023.8411,006.7046
160200724,-1807,0225,-0815,0033,0005,0014,088.8804,022.4012,007.2146
160206431,-1834,0221,-0766,0033,0001,0012,090.4473,024.3620,007.0779
160212138,-1823,0231,-0778,0031,0002,0012,089.5419,022.2904,006.8437
160217886,-1836,0226,-0762,0026,0004,0013,089.1972,023.0440,007.2773
160223611,-1837,0240,-0776,0022,0007,0014,089.2637,022.2976,006.9820
160229317,-1845,0239,-0801,0017,0009,0015,088.5605,022.7890,007.5103
160235025,-1827,0223,-0787,0018,0008,0018,089.2464,023.3614,007.3668
160240771,-1836,0219,-0767,0016,0010,0019,089.9895,023.1221,006.9032
160246589,-1822,0219,-0777,0016,0011,0015,089.7594,022.4382,006.7883
160252360,-1823,0235,-0772,0023,0010,0017,089.9991,023.0248,006.8651
160258083,-1838,0233,-0777,0026,0011,0011,088.7356,022.7529,007.4077
160263880,-1849,0232,-0766,0026,0006,0012,089.1573,022.7531,007.1956
160269581,-1839,0217,-0737,0028,0003,0013,088.9284,022.2924,007.1451
160275329,-1840,0240,-0772,0031,0001,0012,089.4227,021.6230,006.6732
160281035,-1833,0241,-0770,0029,0000,0007,088.4539,022.7272,007.5384
160286629,-1826,0234,-0793,0026,-0002,0007,088.4724,022.5954,007.4815
160292301,-1831,0217,-0769,0026,0000,0003,089.4491,023.4002,007.2732
160297827,-1813,0226,-0807,0026,0004,0004,090.0084,022.5672,006.7063
160303487,-1811,0221,-0791,0027,0004,0005,090.0657,024.0061,007.1573
160309138,-1828,0234,-0789,0025,-0001,0007,090.0877,023.3776,006.9335
160314773,-1850,0217,-0785,0026,0006,0005,089.1543,023.1530,007.3354
160320433,-1831,0236,-0779,0023,0005,0005,090.3606,022.8173,006.6120
160326090,-1839,0219,-0791,0024,0002,0004,088.7655,022.8845,007.4366
160331747,-1822,0227,-0800,0020,0004,0008,090.3858,023.1574,006.7092
160337352,-1830,0221,-0794,0019,0001,0012,089.8070,023.5893,007.1503
160343068,-1828,0241,-0785,0015,0001,0012,090.1756,023.2634,006.8507
160348770,-1803,0226,-0789,0017,0005,0012,088.5551,023.0336,007.6017
160354452,-1833,0227,-0776,0012,0007,0012,089.8682,023.5179,007.0970
160360156,-1826,0237,-0773,0013,0004,0016,089.3903,022.6917,007.0573
160365894,-1835,0244,-0774,0018,0007,0014,088.6886,022.7854,007.4450
160371622,-1819,0234,-0771,0020,0011,0014,088.3224,022.6796,007.5934
160377353,-1828,0233,-0825,0018,0010,0013,089.0133,022.8191,007.2974
160383120,-1836,0239,-0777,0020,0014,0010,090.0896,024.3203,007.2581
160388824,-1839,0236,-0813,0021,0011,0014,088.5645,022.5757,007.4369
160394617,-1827,0238,-0796,0017,0012,0008,089.7287,023.8484,007.2928
160400337,-1854,0237,-0782,0020,0011,0007,089.0884,023.3029,007.4377
160406053,-1826,0234,-0795,0020,0008,0008,088.9585,022.6312,007.2644
160411712,-1833,0236,-0785,0022,0008,0007,089.4533,023.4561,007.3055
160417375,-1835,0244,-0800,0026,0003,0007,089.0488,022.9580,007.3373
160422974,-1846,0239,-0784,0027,0000,0008,088.8663,023.4180,007.5985
160428545,-1833,0229,-0825,0026,-0002,0005,088.8979,022.7811,007.3515
160434178,-1815,0238,-0786,0026,-0003,0011,090.3545,024.2215,007.0909
160439920,-1834,0238,-0783,0030,-0005,0009,088.8073,023.1090,007.5154
160445555,-1834,0237,-0763,0033,-0001,0010,088.9476,022.9259,007.3763
160451227,-1807,0235,-0784,0030,-0005,0010,088.5654,022.3518,007.3589
160456899,-1821,0237,-0788,0029,0000,0011,089.1935,023.3839,007.4136
160462533,-1822,0226,-0770,0025,-0001,0009,089.0697,023.2032,007.4133
160468163,-1812,0221,-0795,0026,-0001,0009,089.4726,022.7030,007.0321
160473846,-1825,0241,-0786,0023,0002,0010,090.2699,023.6391,006.9422
160479564,-1833,0219,-0808,0023,-0001,0012,088.5929,023.0469,007.6027
160485277,-1850,0224,-0770,0026,0005,0012,090.7775,023.7201,006.7033
160491015,-1840,0228,-0769,0028,0007,0015,089.3785,022.2885,006.9292
160496735,-1844,0230,-0777,0025,0006,0012,089.2606,022.5612,007.0820
160502415,-1839,0217,-0821,0024,0005,0015,089.2997,022.7080,007.1138
160508085,-1846,0231,-0770,0023,0001,0013,091.0175,024.0634,006.6798
160513821,-1830,0228,-0790,0024,-0001,0013,088.8348,022.2807,007.1893
160519520,-1828,0231,-0790,0025,-0003,0009,089.7607,023.3169,007.0871
160525141,-1828,0220,-0799,0027,-0003,0010,089.4277,023.1917,007.2139
160530834,-1821,0257,-0782,0026,-0004,0008,090.4042,023.4920,006.8118
160536516,-1828,0229,-0793,0025,-0005,0005,087.3811,022.9716,008.1905
160542162,-1818,0240,-0761,0029,-0007,0006,089.9264,023.3248,007.0034
160547821,-1796,0219,-0785,0025,-0006,0003,088.2000,022.4534,007.5682
160553428,-1818,0233,-0784,0022,-0004,0002,090.2695,023.5325,006.8973
160559100,-1831,0235,-0784,0021,0001,0005,089.1123,023.1117,007.3494
160564741,-1844,0254,-0782,0018,0003,0006,089.1188,022.9975,007.3071
160570411,-1842,0241,-0804,0018,0005,0008,087.7791,022.7619,007.9071
160576047,-1838,0217,-0775,0015,0009,0005,089.2835,023.4792,007.3988
160581687,-1837,0245,-0778,0024,0008,0008,090.1818,022.6337,006.6537
160587340,-1849,0242,-0796,0026,0013,0015,088.1710,022.7934,007.7178
160593119,-1838,0249,-0811,0032,0008,0010,089.0245,023.1633,007.4167
160598816,-1834,0238,-0762,0038,0007,0013,088.7409,023.6779,007.7512
160604529,-1839,0238,-0783,0037,0003,0012,088.4851,022.2244,007.3447
160610257,-1819,0240,-0752,0038,0002,0012,088.9752,022.9876,007.3753
160615963,-1839,0235,-0761,0040,0002,0014,088.0963,022.2114,007.5287
160621677,-1822,0233,-0784,0038,-0005,0018,088.7519,022.3285,007.2467
160627407,-1822,0231,-0783,0038,-0004,0019,089.2914,023.2271,007.2932
160633135,-1807,0239,-0775,0038,-0004,0018,089.3278,023.0687,007.2154
160638861,-1820,0246,-0789,0036,-0002,0022,088.5996,023.0286,007.5714
160644598,-1819,0234,-0797,0034,-0002,0016,088.4994,023.2794,007.7155
160650315,-1827,0232,-0806,0032,-0001,0016,089.5054,023.5169,007.2743
160656051,-1832,0225,-0795,0031,0003,0021,089.6695,023.6534,007.2332
160661766,-1844,0222,-0791,0026,-0002,0022,089.9024,023.2529,006.9736
160667524,-1831,0226,-0798,0027,0001,0019,089.9992,023.0415,006.8512
160673246,-1837,0230,-0775,0025,-0001,0020,089.8383,023.4382,007.0649
160678878,-1833,0224,-0813,0027,-0003,0019,089.1225,022.6276,007.1462
160684644,-1831,0221,-0795,0023,0000,0017,090.3860,023.9326,006.9412
160690235,-1834,0234,-0786,0027,-0001,0013,090.0749,023.2505,006.8749
160695973,-1844,0238,-0764,0027,0003,0015,089.0172,023.0001,007.3269
160701676,-1827,0206,-0777,0032,0001,0011,088.4174,022.2513,007.3554
160707397,-1826,0220,-0765,0028,0005,0008,091.0619,023.0021,006.2995
160713076,-1828,0213,-0753,0027,0000,0006,089.4675,022.5325,006.9345
160718634,-1836,0223,-0786,0022,-0003,0004,089.9059,022.2239,006.6167
160724283,-1839,0219,-0785,0022,-0005,0002,089.8191,023.1258,006.9614
160729936,-1842,0231,-0794,0018,-0003,0003,090.0878,022.9483,006.7669
160735627,-1840,0216,-0772,0013,-0006,0000,089.4047,023.1788,007.1936
160741173,-1838,0223,-0788,0006,-0001,0003,090.0898,022.5628,006.6443
160746775,-1837,0226,-0775,0005,0000,0004,089.8497,023.1102,006.9493
160752244,-1847,0238,-0802,0003,-0003,0006,089.4263,022.6824,007.0195
160757805,-1855,0214,-0808,0008,-0002,0011,089.1956,023.3590,007.3770
160763471,-1842,0234,-0791,0006,-0001,0009,090.9452,023.3999,006.4928
160769083,-1832,0231,-0751,0005,-0001,0008,089.0821,023.0348,007.3231
160774700,-1827,0217,-0781,0009,0003,0010,088.6694,022.0358,007.1732
160780294,-1836,0231,-0786,0009,0002,0006,090.3365,023.1183,006.7232
160785919,-1824,0234,-0783,0008,0006,0007,089.2741,023.0009,007.2244
160791520,-1842,0239,-0791,0010,0003,0004,089.1426,023.0699,007.3192
160797174,-1812,0228,-0779,0011,0009,0004,088.9902,023.0678,007.4001
160802832,-1827,0230,-0770,0015,0005,0003,089.5196,023.1039,007.1445
160808465,-1819,0246,-0783,0016,0004,0005,089.1404,022.6439,007.1766
160814140,-1842,0234,-0773,0021,0006,0008,088.3523,023.1627,007.7699
160819809,-1831,0238,-0801,0023,0002,0003,089.0795,022.5329,007.1714
160825431,-1826,0238,-0757,0029,0000,0009,089.2857,023.5654,007.4327
160831002,-1837,0237,-0789,0028,-0003,0006,088.3572,022.2346,007.4217
160836622,-1846,0240,-0782,0029,-0007,0008,089.1972,023.1715,007.3394
160842312,-1846,0253,-0773,0030,-0005,0009,088.7437,022.7353,007.4129
160847934,-1814,0247,-0786,0026,-0006,0011,087.7151,022.5046,007.8468
160853677,-1830,0224,-0767,0022,-0007,0013,088.5404,023.3341,007.7406
160859432,-1831,0226,-0791,0021,-0005,0013,089.6485,022.4813,006.8741
160865156,-1842,0237,-0782,0024,-0001,0018,089.8353,023.3118,007.0620
160870873,-1842,0238,-0783,0020,0003,0015,088.8624,022.7708,007.3681
160876542,-1844,0221,-0794,0024,-0002,0017,088.9425,022.8677,007.3627
160882247,-1855,0216,-0758,0022,-0001,0015,090.3317,023.1823,006.7657
160887983,-1836,0219,-0786,0023,0002,0016,089.7793,021.9491,006.6269
160893711,-1847,0244,-0788,0021,0002,0014,090.2067,023.1902,006.8291
160899428,-1844,0238,-0765,0021,0000,0019,088.4518,022.8903,007.6179
160905073,-1826,0228,-0783,0026,-0003,0012,088.6074,022.2993,007.3221
160910813,-1837,0211,-0779,0025,0000,0017,089.6862,023.1633,007.0867
160916407,-1839,0249,-0762,0026,0002,0011,090.6336,022.8087,006.4913
160922154,-1835,0245,-0761,0029,0002,0011,087.4299,022.2518,007.8845
160927903,-1826,0248,-0756,0024,-0001,0011,088.1628,022.3576,007.5620
160933617,-1806,0236,-0794,0025,-0002,0005,087.7384,022.2967,007.7528
160939275,-1814,0233,-0773,0021,0001,0003,089.4342,023.7020,007.4044
160944939,-1822,0236,-0776,0019,-0001,0004,089.0238,022.8287,007.3075
160950591,-1812,0232,-0757,0021,0001,0004,088.9270,022.9050,007.3858
160956256,-1804,0235,-0754,0023,0000,0005,088.8181,022.4701,007.2846
160961820,-1814,0228,-0797,0024,0002,0005,088.5668,022.5134,007.4271
160967455,-1828,0230,-0756,0029,0000,0007,089.9607,023.6829,007.1271
160973001,-1836,0228,-0781,0030,-0006,0007,088.8392,022.1895,007.1713
160978626,-1816,0223,-0775,0031,-0006,0007,089.6078,022.9703,007.0633
160984240,-1830,0238,-0769,0029,-0005,0012,089.7315,022.9517,006.9927
160989967,-1837,0219,-0781,0032,-0005,0013,088.5161,022.5715,007.4674
160995686,-1834,0214,-0772,0028,-0008,0015,090.2847,022.9269,006.7040
161001405,-1846,0219,-0796,0028,-0011,0014,090.2098,022.6504,006.6477
161007204,-1842,0219,-0784,0023,-0010,0015,090.3296,023.2549,006.7839
161012951,-1830,0240,-0785,0026,-0011,0016,090.0723,022.8576,006.7799
161018753,-1825,0220,-0773,0023,-0008,0016,088.6308,023.0651,007.5832
161024477,-1838,0225,-0784,0025,-0010,0013,090.0103,022.7679,006.7800
161030186,-1844,0242,-0778,0024,-0011,0011,089.6920,022.9658,007.0051
161035982,-1835,0234,-0793,0025,-0009,0011,088.4034,022.6557,007.5449
161041662,-1831,0235,-0779,0024,-0005,0014,089.4576,023.2729,007.2301
161047389,-1837,0227,-0787,0025,-0002,0009,088.9623,022.8215,007.3231
161053061,-1831,0232,-0773,0028,0001,0011,089.7511,023.0606,007.0065
161058750,-1838,0223,-0787,0028,0003,0013,089.0039,022.6794,007.2492
161064451,-1836,0228,-0785,0030,0006,0015,090.0222,023.0769,006.8722
161070113,-1823,0241,-0785,0029,0009,0011,089.4995,022.9828,007.1032
161075859,-1834,0237,-0772,0031,0006,0011,088.6503,023.1386,007.5929
161081564,-1835,0216,-0783,0036,0007,0009,088.7779,022.5960,007.3287
161087252,-1804,0236,-0759,0031,0004,0005,090.4676,023.0163,006.6252
161092896,-1831,0233,-0782,0032,-0001,0006,088.4157,022.6132,007.5143
161098568,-1822,0221,-0788,0032,-0004,0007,089.2907,023.0048,007.2127
161104204,-1812,0222,-0736,0030,-0009,0007,090.1209,023.2598,006.8751
161109881,-1811,0226,-0782,0028,-0010,0007,088.9127,021.8570,006.9893
161115531,-1830,0222,-0778,0022,-0013,0009,089.6817,023.3423,007.1260
161121277,-1831,0228,-0775,0024,-0010,0009,089.7982,022.8095,006.8845
161126926,-1856,0223,-0790,0022,-0009,0009,089.2961,022.7747,007.1238
161132614,-1843,0231,-0771,0022,-0009,0013,090.0034,022.9201,006.8181
161138344,-1842,0227,-0750,0025,-0010,0014,088.9578,022.4854,007.1884
161144045,-1847,0238,-0790,0022,-0011,0012,088.9363,021.9326,007.0029
161149814,-1857,0238,-0793,0023,-0011,0009,089.0205,023.1386,007.3917
161155522,-1842,0238,-0783,0024,-0010,0013,089.0682,022.9283,007.2922
161161337,-1856,0241,-0753,0023,-0008,0010,088.8534,022.8435,007.3714
161167027,-1845,0223,-0784,0023,-0008,0012,088.0175,021.7994,007.4009
161172700,-1839,0233,-0767,0023,-0003,0011,090.0624,023.0118,006.8229
161178422,-1842,0225,-0737,0023,-0004,0012,088.7327,022.4013,007.2746
161184112,-1827,0228,-0781,0025,0000,0016,088.8343,021.5654,006.9259
161189688,-1835,0238,-0767,0026,0000,0012,089.5471,023.1639,007.1364
161195329,-1825,0239,-0783,0027,0002,0010,088.4707,022.4345,007.4188
161201045,-1826,0231,-0740,0028,0004,0011,088.8859,023.1359,007.4655
161206786,-1815,0238,-0786,0030,0000,0007,088.4597,021.7648,007.1783
161212333,-1819,0243,-0778,0024,-0003,0009,089.0010,023.3939,007.5006
161217981,-1826,0238,-0749,0025,-0004,0004,088.4433,022.9226,007.6174
161223630,-1826,0239,-0773,0025,-0004,0006,088.2238,022.0490,007.4031
161229322,-1848,0232,-0797,0020,-0003,0008,088.7153,022.8676,007.4628
161234944,-1834,0220,-0776,0020,-0007,0006,089.6200,023.1956,007.1187
161240571,-1837,0223,-0771,0019,-0004,0004,089.9350,022.7352,006.8039
161246224,-1837,0219,-0787,0017,-0002,0007,089.5811,022.6012,006.9348
161251881,-1846,0226,-0756,0017,-0003,0008,090.2264,023.0990,006.7796
161257548,-1844,0243,-0752,0015,0000,0007,089.0166,022.0002,007.0027
161263078,-1849,0241,-0776,0016,-0002,0009,087.8867,022.0123,007.5587
161268779,-1839,0247,-0782,0016,0002,0010,088.6922,022.6715,007.4083
161274504,-1856,0243,-0765,0021,0004,0009,088.3080,022.8777,007.6820
161280186,-1844,0229,-0761,0026,0006,0013,088.2669,022.1532,007.4323
161285933,-1845,0237,-0771,0031,0007,0014,089.1941,022.2895,007.0269
161291642,-1837,0243,-0745,0041,0005,0014,088.7049,022.5444,007.3572
161297385,-1823,0248,-0788,0045,-0001,0012,087.7398,021.8120,007.5559
161303075,-1851,0233,-0764,0043,-0001,0013,088.4927,023.3891,007.7722
161308763,-1818,0236,-0761,0037,-0006,0013,088.9075,022.1339,007.1018
161314474,-1801,0233,-0757,0037,-0003,0013,088.5759,022.5906,007.4294
161320186,-1815,0237,-0772,0030,-0007,0016,088.7278,022.6277,007.3662
161325884,-1798,0232,-0753,0023,-0004,0019,088.7538,022.8934,007.4503
161331598,-1816,0215,-0754,0024,-0006,0017,088.6955,022.5253,007.3459
161337323,-1815,0229,-0776,0023,-0005,0019,089.9270,022.3907,006.6914
161343043,-1832,0217,-0762,0021,-0004,0019,089.2496,023.0583,007.2576
161348795,-1815,0235,-0766,0021,-0003,0016,089.9083,022.3552,006.6877
161354517,-1823,0226,-0778,0025,-0002,0013,088.6287,022.7518,007.4606
161360291,-1836,0222,-0766,0022,-0007,0014,089.6810,022.9789,007.0093
161366016,-1812,0230,-0778,0023,-0004,0016,089.5621,022.4284,006.8793
161371758,-1855,0246,-0746,0024,-0008,0015,089.2611,023.1491,007.2802
161377447,-1861,0243,-0783,0018,-0010,0017,087.4550,021.5609,007.5883
161383198,-1862,0248,-0744,0019,-0006,0019,088.7393,022.7915,007.4214
161388931,-1857,0242,-0765,0026,-0003,0021,087.3302,021.4549,007.6096
161394665,-1854,0235,-0761,0020,-0001,0020,088.4419,022.3237,007.4022
161400350,-1876,0225,-0764,0022,-0003,0018,088.7057,022.1322,007.2035
161406029,-1855,0242,-0742,0022,-0001,0016,089.4459,022.0004,006.7996
161411746,-1851,0237,-0771,0022,0001,0012,087.6338,021.5839,007.5173
161417469,-1858,0246,-0782,0018,-0001,0006,088.9085,022.5666,007.2632
161423150,-1856,0245,-0771,0019,0002,0005,088.3624,022.6563,007.5728
161428816,-1861,0227,-0756,0017,0003,0006,088.2628,022.3508,007.5117
161434441,-1844,0233,-0750,0017,0001,0005,089.2177,021.9171,006.8917
161440082,-1845,0224,-0758,0016,0002,0008,088.5463,021.9805,007.2398
161445768,-1835,0229,-0765,0017,0001,0008,089.4662,022.2137,006.8785
161451436,-1813,0226,-0773,0018,-0003,0012,089.1320,022.5060,007.1455
161457125,-1819,0221,-0736,0018,0002,0012,089.5537,022.9799,007.1013
161462815,-1804,0225,-0758,0017,0006,0013,089.0920,021.7883,006.9131
161468516,-1835,0219,-0754,0017,0004,0012,089.3191,022.7134,007.1287
161474263,-1824,0219,-0777,0015,0013,0012,089.6556,022.1270,006.7625
161480034,-1820,0246,-0752,0018,0013,0014,090.0874,023.0502,006.8606
161485784,-1827,0239,-0800,0014,0015,0016,087.5858,022.1772,007.7996
161491509,-1837,0251,-0758,0015,0017,0013,089.4520,023.6676,007.4021
161497275,-1838,0225,-0769,0015,0017,0013,087.4189,022.0393,007.8345
161503016,-1831,0243,-0759,0015,0017,0013,089.8474,022.6325,006.8539
161508796,-1844,0243,-0765,0017,0015,0013,087.9717,022.2984,007.6664
161514570,-1847,0228,-0775,0019,0013,0014,088.3966,022.3693,007.4846
161520329,-1838,0228,-0751,0020,0016,0014,089.6278,022.6473,006.9739
161526068,-1859,0224,-0744,0023,0017,0017,088.9304,021.9955,007.0867
161531873,-1848,0244,-0769,0024,0012,0017,089.1722,021.6239,006.8400
161537655,-1840,0227,-0787,0027,0010,0019,088.2381,022.5431,007.6294
161543428,-1835,0225,-0740,0028,0012,0018,089.9670,023.0725,006.9451
161549152,-1836,0227,-0794,0030,0007,0018,088.8594,021.6645,006.9967
161554851,-1834,0249,-0756,0029,0012,0015,089.9989,023.4585,007.0556
161560599,-1842,0217,-0750,0024,0008,0017,087.4519,022.0461,007.8266
161566290,-1824,0238,-0782,0024,0007,0016,090.0181,022.0132,006.5700
161572025,-1830,0243,-0763,0024,0009,0016,088.8315,023.1908,007.5702
161577750,-1824,0223,-0769,0023,0005,0017,088.2340,022.3568,007.5645
161583483,-1830,0231,-0788,0027,0007,0018,089.8715,022.7568,006.8915
161589240,-1844,0225,-0769,0023,0008,0016,089.4741,023.1912,007.2416
161594938,-1838,0235,-0799,0023,0008,0016,089.5619,022.3991,006.9217
161600660,-1840,0226,-0782,0027,0009,0019,089.4630,023.4596,007.3400
161606387,-1820,0238,-0774,0022,0009,0018,089.7548,022.7949,006.9597
161612126,-1821,0230,-0762,0021,0015,0016,088.7075,022.8777,007.5185
161617888,-1842,0248,-0777,0021,0015,0018,089.1555,022.5075,007.1603
161623653,-1830,0241,-0767,0023,0016,0010,088.1563,022.7183,007.7417
161629394,-1820,0231,-0741,0027,0019,0010,088.5786,022.5484,007.4661
161635216,-1838,0219,-0775,0028,0015,0007,088.6562,021.9300,007.2019
161640897,-1837,0235,-0761,0031,0011,0007,090.2445,022.8302,006.7347
161646637,-1850,0236,-0802,0031,0008,0010,088.5702,022.2691,007.3671