Time Stamp,Accel x,Accel y,Accel z,Gyro x,Gyro y,Gyro z,Yaw (Deg),Pitch (Deg),Roll (Deg)
347916116,-1640,0939,-0689,-0042,0009,-0024,091.1396,021.0558,029.9894
347921898,-1653,0949,-0677,-0037,0013,-0023,089.9132,019.8766,029.7606
347927745,-1637,0970,-0653,-0039,0005,-0022,089.3938,019.4900,029.8695
347933560,-1650,0979,-0649,-0035,-0004,-0024,088.0333,018.8364,030.7630
347939316,-1641,0987,-0663,-0030,-0005,-0026,087.9016,018.6526,030.6613
347945080,-1653,0989,-0684,-0017,-0006,-0029,088.2792,019.1460,031.0649
347950853,-1636,1009,-0657,-0009,-0008,-0032,088.9662,019.5884,030.8552
347956592,-1644,1012,-0670,-0006,-0019,-0031,087.4339,018.7604,031.7535
347962391,-1639,1009,-0639,-0006,-0027,-0029,088.0517,019.1714,031.5813
347968187,-1655,1020,-0660,-0003,-0040,-0027,086.9153,018.2324,031.6062
347973952,-1632,1011,-0646,-0002,-0039,-0024,087.5997,018.7937,031.6365
347979735,-1631,1016,-0666,0005,-0037,-0023,087.2327,018.5496,031.7824
347985551,-1657,1016,-0696,0012,-0038,-0012,087.9144,019.1801,031.9290
347991365,-1637,1029,-0698,0020,-0036,-0005,088.8781,019.7489,031.4541
347997169,-1662,1017,-0675,0028,-0039,0008,088.5168,019.8463,032.2402
348002967,-1657,1036,-0700,0040,-0045,0019,088.0387,019.0101,031.3749
348008716,-1657,1026,-0720,0050,-0046,0035,088.5014,019.7719,032.0892
348014545,-1645,1009,-0719,0053,-0044,0042,089.3375,020.3232,031.7316
348020424,-1640,0994,-0710,0052,-0036,0051,089.5918,020.4399,031.5041
348026284,-1639,0981,-0719,0039,-0026,0048,089.5986,020.2896,031.1899
348032136,-1638,0939,-0722,0030,-0016,0054,090.2293,020.6686,030.8744
348037949,-1620,0916,-0736,0019,-0009,0049,091.3456,020.9567,029.6866
348043770,-1607,0912,-0740,0017,0003,0047,092.3285,021.6785,029.4660
348049570,-1583,0897,-0714,0020,0009,0048,092.4084,021.8467,029.6066
348055321,-1613,0880,-0766,0021,0016,0042,091.9212,021.3989,029.5460
348061268,-1618,0868,-0754,0024,0022,0031,094.3518,022.8527,028.4582
348067156,-1607,0875,-0751,0017,0026,0021,093.8600,022.2543,028.1824
348072998,-1584,0871,-0759,0022,0019,0011,093.6016,022.3269,028.6198
348078876,-1583,0890,-0757,0013,0025,0000,094.0131,022.8310,028.8238
348084534,-1587,0899,-0781,0007,0021,-0010,093.3625,022.6142,029.3815
348090300,-1570,0924,-0712,0004,0013,-0015,093.9505,023.2532,029.5425
348096076,-1577,0944,-0731,0001,0011,-0022,090.9722,021.2061,030.5354
348101845,-1589,0951,-0716,0002,0007,-0022,091.3267,021.7432,030.9394
348107551,-1612,0963,-0732,0002,0004,-0025,090.5996,021.0653,030.8838
348113261,-1649,0982,-0741,-0002,0004,-0025,090.9324,021.3219,030.8383
348118985,-1646,0990,-0726,-0003,0012,-0024,090.7234,021.0840,030.7570
348124734,-1663,1012,-0735,-0003,0013,-0025,090.0579,020.6568,031.0455
348130514,-1654,1029,-0734,0003,0016,-0021,089.9176,020.6855,031.3420
348136301,-1682,1020,-0714,0005,0020,-0014,089.5145,020.6420,031.9398
348142061,-1685,1026,-0712,0007,0028,-0012,089.1369,019.8937,031.1687
348147867,-1685,1004,-0733,0011,0028,-0004,088.9801,019.8436,031.3509
348153674,-1687,1035,-0738,0011,0032,0005,090.2287,020.5622,030.7315
348159496,-1681,1023,-0727,0012,0038,0012,089.5490,020.4458,031.6108
348165317,-1679,1023,-0742,0012,0049,0022,089.5497,020.2709,031.3038
348171167,-1652,1010,-0744,0019,0047,0028,090.0522,020.7323,031.3694
348177005,-1634,1001,-0737,0022,0044,0028,090.3829,021.0662,031.4595
348182846,-1619,0977,-0729,0024,0044,0027,090.3345,021.0456,031.5055
348188669,-1606,0962,-0696,0024,0041,0021,090.6808,021.0994,031.0577
348194486,-1617,0953,-0727,0022,0040,0009,089.8560,020.2970,030.9028
348200233,-1595,0948,-0747,0025,0036,0004,091.3281,021.3104,030.4553
348206006,-1582,0941,-0735,0030,0039,-0001,091.9511,022.0419,030.7657
348211754,-1578,0956,-0721,0031,0040,-0003,091.6362,021.7475,030.7382
348217508,-1575,0942,-0720,0041,0039,-0002,090.8048,021.3113,031.2591
348223294,-1567,0941,-0700,0048,0042,0003,091.2256,021.4497,030.8394
348229017,-1587,0948,-0726,0051,0036,0007,090.5324,020.9354,030.9922
348234811,-1596,0966,-0695,0054,0034,0012,091.3027,021.5265,030.8308
348240663,-1617,0977,-0731,0052,0026,0020,089.5994,020.2812,031.2385
348246469,-1608,0992,-0678,0054,0019,0026,090.8271,021.2953,031.1283
348252349,-1616,0987,-0682,0047,0016,0030,088.3338,019.4922,031.7645
348258216,-1624,1008,-0678,0051,0014,0030,089.0187,019.8665,031.3619
348264030,-1629,1000,-0716,0046,0011,0032,088.2392,019.4855,031.9017
348269856,-1634,1006,-0712,0047,0008,0032,089.8835,020.6921,031.4979
348275667,-1625,1002,-0716,0050,0005,0035,089.3534,020.3174,031.6411
348281408,-1641,1015,-0720,0059,0006,0032,089.6485,020.5954,031.6644
348287216,-1627,0973,-0720,0058,0009,0030,089.4229,020.4535,031.7501
348292994,-1613,0967,-0712,0057,0012,0028,090.4872,020.8507,030.7656
348298812,-1604,0976,-0699,0056,0015,0026,090.1983,020.7271,030.9729
348304626,-1597,0960,-0704,0056,0023,0026,089.5329,020.3813,031.3782
348310480,-1592,0971,-0717,0054,0027,0028,090.2294,020.7595,030.9578
348316342,-1594,0956,-0690,0053,0033,0022,090.2917,021.0940,031.4562
348322197,-1621,0944,-0725,0061,0030,0024,089.7068,020.2853,030.8892
348327929,-1606,0951,-0723,0065,0026,0019,091.3429,021.2650,030.1174
348333763,-1618,0948,-0727,0065,0018,0021,090.8185,021.1713,030.7181
348339598,-1614,0959,-0686,0063,0009,0024,091.1031,021.2015,030.3104
348345370,-1618,0951,-0680,0063,-0001,0020,089.2657,019.9104,030.7749
348351087,-1616,0966,-0710,0065,-0004,0017,089.5108,019.9209,030.3971
348356837,-1617,0968,-0712,0062,-0012,0018,090.1530,020.7755,030.9381
348362669,-1607,0962,-0745,0060,-0012,0021,090.0557,020.6844,030.8988
348368482,-1617,0972,-0714,0057,-0011,0018,091.3695,021.8541,030.9035
348374358,-1627,0963,-0729,0042,-0014,0017,089.7859,020.5485,031.0254
348380199,-1621,0956,-0692,0036,-0008,0017,090.7933,021.1651,030.5575
348385986,-1610,0956,-0711,0024,-0005,0012,089.4932,020.0409,030.5255
348391742,-1607,0970,-0687,0020,0002,0016,090.3792,020.9073,030.7308
348397474,-1584,0937,-0719,0014,0005,0015,089.0229,019.9851,031.1719
348403251,-1605,0968,-0708,0011,0011,0011,091.1906,021.4995,030.5395
348409172,-1608,0956,-0723,0007,0008,0007,089.6723,020.5444,031.1945
348414845,-1609,0972,-0689,0005,0011,0004,090.7774,021.2052,030.6709
348420556,-1606,0975,-0703,0005,0004,0000,089.0172,019.9766,031.1967
348426085,-1637,0982,-0680,0006,0002,0001,089.6723,020.5661,031.2665
348431741,-1602,0969,-0686,0010,-0003,0003,088.6355,019.4970,030.9233
348437417,-1621,0999,-0703,0014,-0008,0004,089.3014,020.1970,031.1977
348443162,-1625,1011,-0689,0020,-0013,0000,089.0735,020.2647,031.6996
348448784,-1624,1005,-0691,0021,-0019,0004,088.3453,019.7414,031.9026
348454592,-1636,1023,-0696,0022,-0023,0007,088.6418,019.9005,031.7253
348460383,-1638,1024,-0680,0024,-0026,0007,088.3480,019.8142,032.0511
348466182,-1634,1029,-0712,0024,-0026,0010,087.8084,019.3266,032.0034
348472007,-1620,1017,-0689,0027,-0021,0012,088.8757,020.3552,032.2253
348477851,-1637,1027,-0708,0030,-0015,0017,088.2194,019.7237,032.1042
348483673,-1626,1027,-0696,0034,-0009,0019,088.7374,020.1692,032.1031
348489465,-1641,0994,-0667,0038,-0005,0022,088.2606,019.8574,032.3011
348495249,-1626,0993,-0684,0035,0001,0029,088.0873,019.0831,031.0734
348500976,-1638,0990,-0691,0041,0000,0030,088.7513,019.8409,031.4644
348506602,-1643,0987,-0680,0045,0002,0042,088.9723,019.8541,031.1249
348512374,-1643,0980,-0697,0043,0000,0047,088.6203,019.4921,030.9886
348518026,-1646,0957,-0667,0049,-0001,0045,089.4287,020.0787,030.8047
348523771,-1642,0959,-0707,0049,-0003,0049,088.8211,019.2072,030.1042
348529530,-1649,0964,-0709,0050,-0009,0047,090.3033,020.5664,030.3230
348535294,-1633,0967,-0695,0044,-0015,0040,090.0179,020.3337,030.3156
348541133,-1605,0943,-0699,0047,-0020,0034,089.4519,020.0730,030.6856
348546940,-1613,0941,-0691,0043,-0018,0024,090.3061,020.6483,030.4003
348552785,-1591,0958,-0723,0034,-0020,0021,089.9285,020.2465,030.2376
348558601,-1598,0965,-0737,0032,-0021,0013,090.6796,021.4315,031.1865
348564475,-1604,0948,-0685,0025,-0019,0011,090.8554,021.5543,031.1140
348570321,-1587,0957,-0748,0026,-0016,0006,089.4374,020.0009,030.5120
348576124,-1590,0955,-0734,0025,-0014,0005,091.6606,022.3252,031.1910
348581904,-1610,0965,-0733,0022,-0009,0002,090.8626,021.4821,030.9574
348587637,-1637,0963,-0724,0026,-0010,0004,090.6725,021.3046,030.9300
348593429,-1625,0963,-0727,0029,-0007,0001,090.4367,020.8048,030.3999
348599120,-1619,0969,-0737,0034,-0005,0000,090.5680,021.0795,030.6768
348604727,-1622,0976,-0714,0035,-0001,-0002,090.7305,021.3632,030.9184
348610426,-1626,0985,-0716,0035,0004,0003,089.7457,020.5809,031.0456
348616115,-1632,0980,-0735,0030,0010,0000,089.7129,020.6463,031.2209
348621696,-1631,0972,-0724,0023,0013,0002,090.4694,021.1570,030.9587
348627498,-1621,0968,-0715,0024,0024,0003,090.2296,020.8390,030.7678
348633259,-1620,0954,-0732,0016,0019,0000,090.0552,020.7300,030.8519
348638912,-1621,0959,-0712,0011,0019,0002,091.0296,021.3411,030.4481
348644688,-1628,0946,-0724,0018,0018,0007,090.0744,020.6193,030.6316
348650482,-1646,0948,-0744,0015,0017,0003,090.9931,021.0948,030.0882
348656253,-1630,0948,-0736,0018,0019,0005,091.4976,021.4310,029.9186
348662105,-1630,0955,-0722,0022,0019,0002,091.1492,021.3081,030.2204
348667892,-1625,0967,-0710,0022,0025,0003,090.5279,020.8654,030.3841
348673631,-1618,0965,-0717,0026,0017,0002,089.8802,020.5438,030.8031
348679420,-1594,0972,-0734,0031,0021,0002,090.2759,020.8862,030.8100
348685234,-1612,1004,-0728,0035,0017,0002,090.6298,021.5645,031.4649
348691099,-1606,1003,-0741,0044,0013,0005,089.5498,020.8902,031.9789
348696906,-1632,1008,-0746,0048,0008,0009,090.1671,021.4478,031.9829
348702646,-1626,1007,-0759,0051,0004,0015,090.1105,021.2341,031.6682
348708414,-1632,1020,-0725,0059,-0001,0021,090.5466,021.7003,031.7812
348714208,-1634,1001,-0729,0056,-0006,0024,089.0514,020.5189,032.0315
348719951,-1621,1002,-0737,0054,-0008,0027,089.8029,020.8651,031.4299
348725766,-1616,0986,-0726,0053,-0003,0031,089.9452,021.1849,031.7661
348731543,-1621,0978,-0721,0050,0004,0034,089.9391,020.9588,031.3438
348737273,-1636,0948,-0734,0059,0015,0039,089.9615,020.8442,031.0799
348743089,-1600,0955,-0750,0055,0022,0040,091.1873,021.2792,029.9581
348748853,-1598,0948,-0746,0057,0032,0041,091.3615,022.0432,030.9813
348754710,-1608,0935,-0700,0055,0034,0041,091.3679,021.8632,030.6373
348760475,-1612,0948,-0715,0054,0038,0038,090.1084,020.4911,030.1311
348766326,-1607,0941,-0716,0058,0034,0038,090.4507,021.0153,030.5251
348772177,-1627,0956,-0709,0059,0035,0034,090.6084,021.0500,030.3301
348777985,-1631,0950,-0698,0058,0027,0036,089.9100,020.5365,030.4606
348783815,-1608,0965,-0704,0053,0017,0027,089.7631,020.2655,030.1848
348789663,-1595,0943,-0682,0053,0012,0021,089.5928,020.6378,031.1080
348795503,-1584,0948,-0709,0052,0005,0016,089.3978,020.1610,030.5303
348801303,-1596,0953,-0732,0047,-0004,0012,090.2429,021.1211,030.9443
348807076,-1602,0964,-0705,0045,-0007,0005,090.8014,021.5501,030.8196
348812749,-1613,0985,-0702,0051,-0016,0004,089.4821,020.5445,031.0564
348818506,-1625,0975,-0724,0056,-0018,0003,088.9981,020.3499,031.4520
348824245,-1619,0980,-0721,0059,-0020,0000,090.0701,020.9799,030.8879
348829889,-1631,1007,-0735,0056,-0019,0001,089.6889,020.8386,031.2111
348835670,-1640,0999,-0752,0057,-0012,0003,089.5277,020.9971,031.7441
348841426,-1649,0981,-0710,0059,-0006,0009,090.2850,021.4318,031.2956
348847176,-1642,0998,-0735,0060,0000,0015,089.2250,020.1861,030.6849
348852801,-1620,0969,-0729,0058,0005,0021,089.7531,021.0130,031.3513
348858594,-1636,0976,-0716,0056,0014,0028,090.2232,021.1390,030.8222
348864435,-1641,0964,-0723,0054,0017,0033,089.5073,020.5305,030.8242
348870286,-1621,0970,-0736,0048,0029,0038,090.1659,020.8531,030.3829
348876110,-1607,0957,-0739,0049,0031,0039,090.3566,021.3672,030.9859
348881959,-1584,0953,-0696,0047,0036,0033,090.7735,021.6055,030.7477
348887793,-1585,0948,-0731,0042,0034,0034,089.3213,020.5281,031.0752
348893630,-1627,0933,-0704,0036,0033,0023,090.8743,021.7655,030.8600
348899469,-1608,0931,-0700,0030,0027,0015,090.0804,020.4041,029.6825
348905260,-1600,0914,-0721,0028,0022,0013,090.1114,020.6815,030.1244
348911093,-1584,0949,-0716,0026,0017,0002,091.3266,021.4638,029.6821
348916900,-1614,0939,-0725,0033,0010,0001,090.0356,021.1596,031.0883
348922636,-1605,0945,-0727,0032,0003,-0006,090.7876,021.2273,030.0566
348928345,-1594,0965,-0725,0030,-0007,-0009,090.5800,021.3318,030.5411
348934045,-1627,0942,-0695,0030,-0010,-0010,090.0058,021.2449,031.2726
348939807,-1594,0973,-0732,0028,-0014,-0010,089.6271,020.1529,029.9000
348945621,-1618,0981,-0708,0026,-0015,-0011,090.1861,021.6208,031.6631
348951475,-1625,0995,-0733,0028,-0016,-0007,089.0479,020.3446,031.1555
348957211,-1633,0998,-0723,0027,-0012,-0003,089.7234,021.1253,031.5138
348963038,-1652,1002,-0745,0028,-0007,-0001,089.2252,020.6335,031.4131
348968761,-1643,0983,-0729,0026,-0001,0005,089.9185,021.1298,031.2166
348974506,-1664,0997,-0724,0024,0005,0009,089.7850,020.8105,030.8532
348980226,-1650,1004,-0715,0023,0014,0014,089.2976,020.4345,030.9371
348986066,-1648,0995,-0726,0027,0016,0019,088.8708,020.3007,031.3740
348991883,-1649,0973,-0721,0032,0022,0021,089.5323,020.7157,031.0932
348997752,-1624,0986,-0712,0032,0023,0025,089.8350,020.6298,030.4708
349003580,-1610,0977,-0697,0032,0028,0028,089.1401,020.5387,031.3928
349009389,-1628,0945,-0715,0031,0024,0027,088.9435,020.2810,031.2353
349015212,-1602,0955,-0719,0028,0027,0021,090.4759,020.8839,029.9703
349021071,-1591,0934,-0714,0029,0027,0021,090.1060,021.1248,030.9530
349026924,-1591,0939,-0724,0027,0025,0015,090.5513,021.1676,030.3479
349032740,-1591,0939,-0719,0026,0025,0014,090.7099,021.4387,030.5788
349038540,-1610,0946,-0704,0031,0024,0013,090.5138,021.2502,030.5458
349044374,-1614,0959,-0715,0034,0019,0006,089.8077,020.5709,030.4180
349050147,-1631,0972,-0739,0034,0014,0004,089.9636,020.8957,030.7599
349055919,-1631,0975,-0744,0035,0007,0002,090.4270,021.3190,030.7919
349061602,-1630,0982,-0742,0028,0004,0005,090.4495,021.3888,030.8760
349067306,-1632,0988,-0728,0019,0001,0001,090.2018,021.2883,031.0850
349073018,-1633,0979,-0710,0020,-0005,-0001,089.6142,020.8351,031.1969
349078690,-1637,0990,-0737,0017,-0005,-0002,089.2992,020.4018,030.9094
349084428,-1626,0966,-0737,0017,-0003,-0001,089.9851,021.1461,031.1907
349090166,-1632,0960,-0739,0024,-0003,0001,090.5133,021.3042,030.6483
349095870,-1627,0958,-0758,0022,0004,0003,090.6685,021.3209,030.4399
349101595,-1644,0964,-0752,0025,0009,0002,091.3412,021.9458,030.4926
349107301,-1638,0960,-0717,0025,0017,0007,090.9028,021.4923,030.3734
349113070,-1634,0967,-0740,0021,0024,0008,089.8574,020.5889,030.3738
349118835,-1622,0953,-0699,0021,0028,0009,090.6155,021.3960,030.6514
349124637,-1620,0969,-0682,0018,0031,0008,089.4382,020.2406,030.4057
349130448,-1603,0965,-0733,0016,0033,0011,088.5783,019.8106,030.9642
349136320,-1604,0957,-0734,0011,0026,0012,090.6930,021.6849,031.0668
349142155,-1594,0951,-0702,0010,0020,0012,090.5769,021.4181,030.7857
349147917,-1580,0949,-0715,0012,0009,0008,089.6479,020.6298,030.8251
349153642,-1587,0948,-0735,0011,0003,0004,090.2650,021.2620,031.0070
349159369,-1607,0942,-0711,0018,-0003,-0001,090.9132,021.7323,030.8268
349165089,-1581,0950,-0726,0018,-0003,0000,090.1563,020.7824,030.3183
349170653,-1583,0961,-0690,0024,-0006,-0003,090.5501,021.5454,031.0577
349176345,-1592,0958,-0710,0021,-0007,-0004,089.0182,020.3273,031.2724
349182070,-1581,0976,-0704,0022,-0007,-0008,089.9539,020.9829,030.9987
349187792,-1609,0985,-0717,0023,-0008,-0005,089.1707,020.7168,031.7668
349193489,-1605,0986,-0714,0023,-0005,-0008,089.4981,020.8166,031.4282
349199188,-1625,1001,-0703,0029,-0009,-0003,089.3285,020.7465,031.5737
349204870,-1637,0983,-0731,0030,-0010,-0006,088.6150,020.1560,031.6306
349210577,-1637,1003,-0732,0028,-0013,0000,090.0853,021.0333,030.9024
349216285,-1663,0980,-0732,0024,-0014,0001,089.4556,020.8450,031.5563
349222052,-1655,0989,-0731,0017,-0011,0005,090.0887,020.7510,030.3970
349227823,-1653,0970,-0713,0015,-0012,0008,089.7581,020.7567,030.9155
349233559,-1649,0956,-0739,0018,-0008,0012,089.6632,020.3588,030.3464
349239353,-1634,0946,-0763,0014,-0004,0014,090.9487,021.2989,030.0706
349245137,-1646,0962,-0745,0015,0003,0015,091.8594,022.1000,030.0702
349250851,-1620,0972,-0749,0024,0002,0015,090.7159,021.2581,030.3306
349256607,-1626,0978,-0744,0028,0008,0016,090.7172,021.6784,031.0534
349262391,-1613,0959,-0736,0029,0014,0013,090.3950,021.3781,031.0226
349268238,-1629,0954,-0739,0032,0016,0011,090.6636,021.4259,030.6868
349274095,-1595,0970,-0698,0035,0013,0011,090.8534,021.3753,030.3027
349279969,-1619,0975,-0739,0035,0013,0013,088.9263,020.3611,031.4685
349285767,-1618,0981,-0711,0032,0009,0009,090.5344,021.5045,030.9946
349291497,-1609,0968,-0679,0032,0004,0009,089.1888,020.4772,031.2560
349297228,-1606,0974,-0720,0032,-0004,0011,088.5522,019.7969,030.9995
349303031,-1606,0957,-0711,0033,-0010,0013,089.9676,021.1625,031.2730
349308868,-1610,0981,-0725,0034,-0018,0011,089.8590,020.7605,030.7092
349314696,-1601,0991,-0733,0040,-0018,0010,089.7352,021.0722,031.4537
349320498,-1600,0995,-0769,0043,-0018,0012,089.7655,021.2959,031.7987
349326329,-1603,0990,-0712,0052,-0020,0010,090.8492,022.3376,031.8814
349332123,-1603,0993,-0729,0054,-0020,0009,088.8848,020.4754,031.6676
349337959,-1602,0988,-0713,0055,-0020,0011,089.6700,021.2396,031.7876
349343752,-1606,0986,-0745,0053,-0017,0014,089.1068,020.6729,031.6404
349349594,-1637,0979,-0742,0051,-0016,0019,090.3340,021.7102,031.5302
349355439,-1629,0989,-0711,0057,-0015,0024,090.2026,021.1952,030.7944
349361280,-1616,0973,-0711,0063,-0009,0027,088.8742,020.3545,031.3305
349367078,-1619,0967,-0741,0064,-0007,0033,089.4622,020.7004,031.0125
349372845,-1625,0972,-0744,0060,-0006,0031,090.5512,021.5614,030.8274
349378567,-1641,0951,-0736,0061,0002,0033,090.3545,021.4427,030.8961
349384335,-1632,0943,-0711,0055,0004,0034,090.6363,021.1841,029.9970
349390100,-1626,0930,-0720,0052,0002,0031,089.9143,020.5978,030.0268
349395937,-1620,0930,-0721,0045,0005,0027,090.6981,021.0990,029.7277
349401704,-1609,0921,-0734,0040,0000,0025,090.5908,021.1070,029.8815
349407293,-1577,0941,-0747,0040,0000,0019,091.2856,021.6542,029.7764
349412932,-1600,0931,-0722,0040,0000,0017,091.0995,022.1880,030.9385
349418595,-1582,0946,-0702,0043,-0002,0013,090.5334,021.2202,030.1180
349424383,-1603,0931,-0725,0043,0000,0006,089.4960,020.8079,030.9586
349429947,-1605,0948,-0741,0041,-0003,0005,090.7754,021.4125,030.0641
349435651,-1629,0947,-0747,0036,-0003,0001,090.7341,021.7156,030.6338
349441380,-1620,0939,-0722,0028,-0006,-0006,090.9620,021.6101,030.1040
349447097,-1625,0926,-0727,0024,-0002,-0005,090.2780,021.0116,030.0895
349452781,-1637,0937,-0739,0015,-0004,-0017,090.9043,021.2655,029.6107
349458554,-1632,0942,-0741,0011,0002,-0021,090.9446,021.4086,029.7991
349464333,-1629,0967,-0728,0012,0002,-0020,090.8756,021.4705,030.0098
349470084,-1639,0967,-0757,0017,0009,-0021,089.7843,020.9597,030.7734
349475918,-1639,0949,-0726,0026,0009,-0027,090.9295,021.7966,030.4912
349481732,-1639,0961,-0720,0029,0008,-0034,090.1879,020.8620,029.9954
349487537,-1660,0967,-0744,0024,0011,-0039,089.7689,020.7398,030.4200
349493365,-1655,0968,-0692,0020,0007,-0044,090.5065,021.2248,030.1739
349499144,-1654,0973,-0738,0018,0005,-0049,088.5840,019.6723,030.3176
349504927,-1676,0952,-0737,0022,0008,-0053,090.3284,021.2168,030.4611
349510706,-1652,0966,-0699,0021,0005,-0060,090.6264,020.8911,029.4755
349516464,-1668,0957,-0738,0026,0002,-0061,088.8964,019.9560,030.3949
349522252,-1646,0956,-0739,0021,0008,-0061,090.7272,021.1233,029.7467
349528036,-1624,0954,-0739,0025,0009,-0055,090.5682,021.2312,030.1752
349533777,-1643,0969,-0740,0031,0014,-0053,090.6523,021.4530,030.4404
349539614,-1632,0966,-0746,0034,0019,-0049,090.2880,021.1752,030.5183
349545467,-1614,0986,-0766,0036,0023,-0042,090.6309,021.5255,030.6149
349551314,-1628,0974,-0746,0038,0024,-0038,090.7354,022.1376,031.5253
349557121,-1605,1011,-0748,0040,0023,-0030,090.3662,021.3883,030.7927
349562923,-1612,0994,-0749,0041,0018,-0024,089.5460,021.5469,032.4014
349568766,-1584,1012,-0748,0048,0014,-0014,090.1147,021.5901,031.5413
349574603,-1584,1027,-0712,0050,0015,-0010,089.5440,021.7251,032.7305
349580374,-1589,1018,-0756,0057,0014,-0004,088.0786,020.5274,032.9789
349586157,-1566,1010,-0720,0060,0014,0003,089.9529,022.0298,032.5898
349591906,-1576,1008,-0713,0067,0012,0006,088.6787,021.0088,032.8451
349597706,-1556,1014,-0710,0069,0009,0014,088.6603,020.8502,032.5604
349603484,-1540,1007,-0699,0069,0007,0017,088.4086,020.9404,033.1621
349609258,-1547,0973,-0687,0072,0003,0027,088.2290,020.7959,033.1822
349615041,-1557,0980,-0641,0079,0002,0031,088.6208,020.5981,032.1006
349620880,-1557,0960,-0724,0082,-0001,0036,086.8374,019.1197,032.1951
349626668,-1558,0932,-0719,0084,-0005,0037,090.3467,021.8861,031.5957
349632486,-1545,0950,-0702,0083,-0007,0038,090.4718,021.5911,030.8357
349638235,-1569,0941,-0673,0082,-0012,0039,089.4292,021.1387,031.6323
349644086,-1600,0938,-0710,0077,-0017,0040,088.6988,020.1300,030.9071
349649892,-1608,0940,-0720,0077,-0019,0036,090.1583,021.0624,030.3080
349655785,-1625,0930,-0732,0075,-0024,0038,090.2262,021.1460,030.3110
349661581,-1637,0933,-0751,0074,-0031,0032,090.8837,021.3812,029.7011
349667437,-1629,0942,-0733,0068,-0035,0029,091.3318,021.7796,029.6747
349673271,-1657,0937,-0723,0063,-0033,0022,090.3508,021.1993,030.0909
349679120,-1652,0921,-0726,0057,-0037,0020,090.2555,020.7313,029.3982
349684925,-1651,0937,-0716,0050,-0032,0013,090.8054,021.0289,029.0959
349690746,-1653,0948,-0720,0043,-0026,0013,089.8995,020.6025,029.6424
349696630,-1645,0931,-0745,0045,-0021,0015,089.8630,020.7075,029.8605
349702438,-1650,0954,-0750,0046,-0015,0011,091.2070,021.6253,029.4508
349708230,-1657,0955,-0750,0045,-0014,0016,090.5430,021.4572,030.1099
349714030,-1660,0981,-0736,0042,-0010,0018,090.5883,021.4047,029.9359
349719855,-1661,0969,-0719,0041,-0011,0015,089.4213,020.8237,030.6603
349725685,-1669,0956,-0713,0035,-0013,0016,089.2826,020.4537,030.2058
349731509,-1673,0965,-0713,0028,-0012,0010,089.4283,020.3180,029.7491
349737305,-1668,0969,-0678,0023,-0010,0008,089.1750,020.2487,030.0021
349743025,-1654,0967,-0690,0018,-0009,0001,087.8705,019.2579,030.1658
349748722,-1658,0955,-0708,0014,-0004,-0002,088.5187,019.8662,030.3253
349754448,-1633,0946,-0696,0012,0001,-0004,089.4059,020.3540,029.8896
349760157,-1631,0970,-0696,0017,0004,-0005,089.1160,020.2256,030.1039
349765878,-1643,0947,-0711,0024,0001,-0007,088.5369,020.1270,030.8195
349771599,-1636,0967,-0726,0029,0003,-0008,089.7544,020.6045,029.8408
349777316,-1642,0957,-0715,0030,-0002,-0011,089.6001,020.9449,030.6732
349783089,-1631,0972,-0726,0031,0000,-0018,089.5041,020.5723,030.1641
349788725,-1642,0959,-0735,0031,-0001,-0020,089.5137,020.9642,030.8513
349794466,-1646,0964,-0726,0025,-0011,-0022,090.1539,021.1470,030.2026
349800311,-1637,0960,-0720,0024,-0017,-0024,089.6263,020.7836,030.3611
349806131,-1654,0946,-0732,0029,-0022,-0023,089.5965,020.7661,030.3759
349811997,-1631,0953,-0750,0035,-0026,-0020,090.3971,021.0412,029.6615
349817833,-1634,0950,-0761,0032,-0021,-0008,090.7079,021.7424,030.3867
349823599,-1614,0961,-0747,0040,-0017,-0004,091.1010,021.9504,030.1349
349829339,-1634,0967,-0794,0044,-0007,0007,090.2731,021.6488,030.8518
349835100,-1629,0952,-0772,0052,0002,0014,091.7413,022.8267,030.5841
349840872,-1594,0965,-0759,0054,0010,0023,091.2274,022.1879,030.2677
349846700,-1613,0963,-0756,0056,0016,0026,090.4869,022.1679,031.3452
349852562,-1612,0980,-0745,0063,0017,0031,090.5406,021.8952,030.7645
349858439,-1608,0982,-0720,0061,0024,0033,089.6941,021.5076,031.3870
349864248,-1612,0968,-0722,0063,0020,0030,088.9063,020.8383,031.4192
349870007,-1601,0951,-0724,0058,0016,0030,089.4411,021.0390,030.9265
349875812,-1575,0942,-0689,0054,0011,0028,089.8754,021.2858,030.6791
349881647,-1594,0916,-0720,0053,0008,0026,088.8314,020.5162,030.9047
349887453,-1576,0894,-0696,0044,0002,0025,090.7087,021.4896,029.7670
349893228,-1581,0885,-0708,0035,0000,0025,090.2596,020.9881,029.5573
349898823,-1598,0878,-0695,0032,-0002,0026,090.9066,021.3520,029.2331
349904633,-1598,0879,-0695,0029,-0009,0021,090.6156,020.8250,028.7553
349910445,-1607,0871,-0724,0026,-0017,0018,090.5970,020.8545,028.8183
349916325,-1641,0870,-0745,0020,-0026,0009,091.8722,021.6852,028.4109
349922097,-1619,0879,-0735,0014,-0033,0000,092.4952,021.8657,027.8513
349927800,-1640,0902,-0725,0017,-0035,-0007,091.7759,021.7211,028.5636
349933554,-1650,0922,-0727,0017,-0033,-0013,090.8131,021.0794,028.8340
349939417,-1639,0931,-0724,0021,-0031,-0014,090.4426,021.0170,029.2404
349945277,-1676,0966,-0754,0027,-0031,-0014,090.1324,020.9971,029.6420
349951110,-1681,0979,-0752,0033,-0029,-0016,090.2704,021.3198,029.9813
349956953,-1676,0982,-0760,0032,-0026,-0010,089.8460,021.1035,030.2303
349962792,-1688,1006,-0734,0029,-0024,-0005,090.0756,021.3883,030.3726
349968561,-1668,1003,-0731,0033,-0019,-0001,088.6236,020.3940,030.8224
349974315,-1672,1004,-0726,0033,-0013,0000,088.7313,020.5992,031.0324
349979985,-1652,0986,-0747,0034,-0008,0006,088.5367,020.3992,030.9751
349985668,-1669,0979,-0753,0034,0001,0008,089.6882,021.3040,030.8128
349991372,-1664,0972,-0732,0036,0015,0015,089.9412,021.2650,030.3572
349997179,-1667,0959,-0731,0039,0022,0019,089.3910,020.7510,030.2846
350003029,-1662,0923,-0715,0039,0027,0023,089.7655,020.8294,029.8656
350008888,-1646,0929,-0722,0034,0034,0021,090.1359,020.5901,028.9310
350014776,-1651,0926,-0726,0032,0033,0024,090.1648,020.9709,029.5328
350020593,-1641,0914,-0760,0036,0026,0021,090.3847,020.9936,029.2543
350026466,-1627,0911,-0733,0041,0023,0021,091.9027,022.2096,029.0960
350032299,-1608,0919,-0726,0036,0015,0016,090.7690,021.3448,029.2698
350038154,-1621,0928,-0733,0037,0004,0016,090.4568,021.4152,029.8231
350043929,-1579,0915,-0707,0036,-0006,0009,090.4900,021.4260,029.7816
350049641,-1592,0932,-0721,0037,-0012,0006,089.9456,021.1547,030.1075
350055419,-1591,0931,-0753,0037,-0019,0002,090.0071,021.3649,030.3679
350061208,-1576,0966,-0752,0037,-0023,0001,091.1302,022.3391,030.3209
350066966,-1584,0967,-0731,0040,-0021,0000,089.9789,022.0999,031.6754
350072614,-1606,0961,-0746,0048,-0022,0005,089.4137,021.4255,031.3642
350078395,-1614,0976,-0741,0049,-0020,0009,090.1405,021.7726,030.8199
350084152,-1631,0960,-0717,0047,-0019,0012,089.4626,021.3995,031.2029
350089973,-1634,0976,-0729,0043,-0017,0019,089.1293,020.6535,030.3791
350095806,-1633,0948,-0734,0042,-0013,0024,089.1712,020.9994,030.9216
350101651,-1654,0947,-0725,0038,-0004,0026,090.0787,021.2770,030.0216
350107417,-1655,0953,-0735,0034,0005,0029,089.6529,020.7710,029.7701
350113195,-1675,0937,-0737,0027,0015,0030,089.8946,021.0893,029.9636
350118985,-1652,0920,-0710,0026,0015,0033,090.3568,020.9996,029.1440
350124791,-1653,0921,-0711,0030,0028,0034,089.8080,020.5269,029.1184
350130631,-1644,0912,-0729,0033,0036,0031,089.9036,020.6150,029.1347
350136479,-1646,0924,-0702,0038,0034,0028,090.8091,021.3012,029.0065
350142312,-1649,0905,-0699,0038,0030,0027,089.3244,020.2716,029.3600
350148137,-1618,0933,-0707,0036,0025,0020,089.9899,020.4112,028.6667
350153955,-1619,0933,-0725,0029,0017,0014,089.3783,020.7915,030.1935
350159787,-1642,0939,-0724,0023,0009,0008,090.1347,021.2745,029.9129
350165523,-1632,0938,-0690,0016,0000,0002,089.8154,020.8979,029.7409
350171165,-1601,0953,-0712,0013,-0001,-0003,088.6812,020.0324,029.9009
350176878,-1594,0941,-0714,0018,-0009,-0005,089.2228,021.0353,030.8831
350182603,-1614,0961,-0739,0021,-0008,-0006,089.5379,021.0936,030.5091
350188316,-1615,0946,-0723,0024,-0014,-0008,089.8393,021.5199,030.7963
350194100,-1625,0948,-0752,0024,-0011,-0005,089.6421,021.0557,030.2880
350199848,-1619,0978,-0739,0029,-0016,-0004,090.6154,021.8827,030.2455
350205629,-1643,0952,-0720,0026,-0010,-0001,089.2482,021.2586,031.2526
350211366,-1648,0964,-0752,0028,-0005,0004,089.4598,020.7033,029.9490
350217079,-1640,0958,-0717,0024,-0002,0009,090.2076,021.5899,030.3690
350222796,-1633,0962,-0712,0024,0004,0011,089.0879,020.5727,030.2813
350228581,-1662,0931,-0711,0017,0005,0013,088.9470,020.5892,030.5353
350234352,-1633,0943,-0723,0015,0010,0011,089.7682,020.4499,029.0987
350240145,-1625,0932,-0711,0011,0016,0014,089.7713,021.0601,030.1518
350245974,-1637,0941,-0714,0004,0018,0010,089.6523,020.7393,029.7884
350251726,-1646,0916,-0712,0003,0026,0011,089.5500,020.7119,029.9098
350257498,-1650,0924,-0723,0003,0032,0012,090.2032,020.7083,028.9863
350263245,-1642,0928,-0741,0003,0031,0009,090.2950,020.9561,029.2884
350268976,-1640,0930,-0717,0007,0029,0002,090.8172,021.5196,029.4986
350274720,-1629,0943,-0692,0011,0022,0003,089.8524,020.7306,029.5632
350280518,-1633,0946,-0719,0018,0016,0003,088.7149,020.1015,030.1416
350286310,-1637,0967,-0727,0019,0002,0000,089.7955,020.9674,030.0703
350291924,-1601,0955,-0732,0018,-0004,-0001,089.3750,020.9157,030.6185
350297703,-1597,0964,-0740,0025,-0010,-0001,089.9189,021.5156,030.8411
350303445,-1619,0966,-0742,0025,-0014,-0004,089.8708,021.6490,031.1489
350309217,-1617,0976,-0735,0027,-0017,-0002,089.8900,021.4529,030.7711
350314984,-1607,0974,-0711,0028,-0012,0000,089.3898,021.2312,031.1553
350320694,-1617,0957,-0737,0026,-0009,0002,088.6857,020.6519,031.2231
350326441,-1636,0954,-0719,0025,-0005,0007,090.1285,021.5195,030.5305
350332165,-1648,0958,-0749,0022,0008,0007,089.3943,020.6996,030.2116
350337904,-1632,0945,-0745,0021,0006,0010,090.4080,021.5431,030.1642
350343689,-1654,0942,-0703,0010,0015,0012,090.4980,021.5579,030.0624
350349456,-1630,0948,-0713,0009,0023,0013,089.1085,020.1134,029.6172
350355206,-1642,0932,-0729,0016,0024,0017,089.5000,020.8059,030.2712
350361045,-1653,0927,-0713,0018,0022,0022,090.4602,021.1616,029.4807
350366909,-1629,0955,-0725,0028,0019,0020,089.8762,020.5386,029.2572
350372713,-1628,0943,-0716,0036,0013,0017,089.6261,021.0816,030.5616
350378566,-1615,0967,-0748,0038,-0001,0017,089.6595,020.7960,030.0051
350384328,-1612,0971,-0721,0039,-0006,0011,090.1229,021.8014,031.0457
350390105,-1607,0971,-0722,0038,-0011,0013,089.0168,020.8423,031.0625
350395958,-1605,0993,-0724,0036,-0013,0013,089.2077,021.0605,031.1521
350401777,-1595,0965,-0722,0032,-0013,0009,088.6808,020.9699,031.8328
350407581,-1598,0963,-0707,0022,-0016,0005,089.4139,021.1937,031.0677
350413379,-1601,0948,-0689,0016,-0013,0004,088.8253,020.6795,031.0716
350419149,-1627,0937,-0702,0010,-0015,0002,088.6691,020.2653,030.5741
350424877,-1629,0918,-0738,0008,-0009,0004,089.4691,020.5240,029.8464
350430546,-1664,0920,-0715,0010,-0007,0008,091.1587,021.6646,029.3428
350436270,-1650,0911,-0713,0012,0001,0012,090.0787,020.4811,028.8920
350442029,-1648,0940,-0704,0016,0001,0010,090.3973,020.7518,028.9053
350447777,-1653,0925,-0741,0019,0003,0013,089.2205,020.3002,029.8104
350453553,-1665,0950,-0733,0018,0008,0017,091.1133,021.5114,029.1527
350459322,-1655,0928,-0731,0019,0010,0012,089.9043,020.8539,029.7758
350465121,-1650,0944,-0736,0020,0010,0007,090.5900,021.0991,029.2106
350470857,-1631,0959,-0733,0015,0006,0005,090.2334,021.1709,029.8457
350476576,-1637,0956,-0723,0025,0006,-0003,089.7836,021.1770,030.5284
350482294,-1642,0959,-0715,0033,-0003,-0011,089.5785,020.8372,030.2438
350488073,-1619,0960,-0717,0032,0000,-0008,089.2457,020.5742,030.2829
350493667,-1625,0979,-0700,0034,0002,-0006,089.3368,020.8855,030.7018
350499303,-1618,0955,-0722,0035,0003,-0004,088.2641,020.1819,031.1004
350505017,-1640,0958,-0712,0031,0007,-0001,089.7889,021.1372,030.4686
350510744,-1609,0967,-0724,0026,0009,0001,089.1577,020.4778,030.2649
350516451,-1629,0948,-0700,0019,0009,0010,089.4257,021.1780,031.1133
350522201,-1612,0948,-0740,0015,0004,0004,089.0476,020.2660,030.0759
350527913,-1609,0951,-0726,0012,0004,0004,090.5248,021.7819,030.5152
350533649,-1622,0950,-0723,0021,0001,0001,089.7518,021.1472,030.5906
350539342,-1620,0938,-0742,0025,0005,0003,089.7872,021.0234,030.3236
350545031,-1634,0919,-0726,0027,0004,0004,090.7615,021.7009,030.0339
350550726,-1624,0951,-0724,0027,0008,0001,090.5987,021.1038,029.2657
350556455,-1644,0933,-0715,0033,0007,-0004,089.6704,021.0340,030.5014
350562164,-1636,0944,-0727,0033,0008,-0001,089.9647,020.6823,029.4581
350567868,-1655,0949,-0690,0037,0006,-0005,090.0537,021.1025,030.0475
350573642,-1636,0935,-0704,0036,0007,0000,088.5882,019.7303,029.7968
350579251,-1652,0932,-0710,0036,0005,0002,089.6536,020.5778,029.7372
350584979,-1651,0940,-0738,0036,-0002,0003,089.8182,020.5133,029.3849
350590727,-1669,0938,-0711,0029,-0005,0006,090.5601,021.3211,029.6874
350596456,-1651,0948,-0726,0031,-0004,0001,089.5788,020.2650,029.2917
350602185,-1638,0952,-0704,0036,-0004,-0002,089.9537,020.9521,029.9321
350607943,-1613,0955,-0735,0038,0004,-0001,089.0184,020.3080,030.1894
350613652,-1621,0961,-0750,0038,0009,-0003,090.1645,021.5738,030.6850
350619335,-1603,0968,-0712,0045,0009,0000,090.3498,021.7225,030.6510
350624930,-1624,0992,-0735,0053,0008,0003,088.8620,020.7203,031.1732
350630630,-1629,0965,-0699,0052,0011,0012,089.2068,021.1729,031.4446
350636489,-1620,0983,-0717,0057,0011,0013,088.5897,020.1361,030.5207
350642343,-1627,0946,-0710,0048,0009,0022,088.8534,020.8281,031.3713
350648102,-1631,0928,-0717,0045,0002,0025,089.5192,020.6490,030.0164
350653831,-1640,0912,-0713,0039,-0003,0033,090.1537,020.9470,029.5914
350659626,-1624,0933,-0735,0041,-0004,0032,090.3591,020.7822,029.0063
350665413,-1619,0920,-0717,0042,-0002,0034,090.5148,021.5309,030.0252
350671173,-1605,0937,-0726,0040,0001,0034,090.2019,020.9945,029.5563
350676900,-1598,0913,-0737,0037,0000,0028,090.0867,021.3870,030.3853
350682621,-1581,0943,-0712,0040,0004,0026,091.1198,021.8749,029.6708
350688399,-1602,0911,-0720,0034,0002,0017,089.3288,021.0620,030.9434
350694176,-1613,0910,-0699,0028,-0003,0010,090.6610,021.3672,029.4764
350699918,-1613,0926,-0690,0021,-0002,0007,089.7905,020.5993,029.4228
350705678,-1629,0920,-0712,0017,0001,0003,089.1241,020.3191,029.9109
350711396,-1650,0920,-0703,0020,-0007,0004,090.1834,020.9034,029.3871
350717099,-1652,0902,-0674,0017,-0016,0004,089.7039,020.3395,029.1082
350722877,-1680,0933,-0740,0020,-0020,0004,089.1826,019.5976,028.5612
350728612,-1667,0932,-0722,0023,-0020,0006,090.7803,021.2327,029.1026
350734345,-1692,0955,-0729,0023,-0017,0004,089.9865,020.6374,029.2166
350740159,-1695,0955,-0724,0026,-0013,0001,089.7095,020.5510,029.4611
350745968,-1691,0975,-0732,0026,-0004,-0001,089.5739,020.3922,029.3842
350751686,-1663,0974,-0754,0030,0002,0002,089.3537,020.5710,030.0178
350757407,-1679,0985,-0715,0036,0009,-0002,090.1394,021.4572,030.3874
350763167,-1681,0963,-0728,0035,0013,0002,088.4862,020.0465,030.3945
350768946,-1653,0961,-0727,0034,0020,-0001,089.6691,020.6627,029.7354
350774666,-1651,0967,-0739,0032,0025,-0003,089.5599,020.8438,030.2195
350780394,-1641,0929,-0732,0026,0027,0001,089.8309,021.1575,030.3709
350786176,-1642,0930,-0733,0023,0034,0006,090.5877,021.2317,029.3973
350791952,-1646,0925,-0721,0020,0032,0010,090.4910,021.2348,029.5462
350797702,-1637,0913,-0721,0011,0031,0010,090.2238,020.8606,029.3089
350803599,-1625,0908,-0724,0007,0031,0010,090.6186,021.0757,029.1249
350809345,-1588,0871,-0724,0003,0024,0014,090.8062,021.2805,029.2101
350815104,-1595,0894,-0735,0003,0029,0014,091.8042,021.8265,028.7175
350820861,-1583,0905,-0734,0011,0026,0016,091.4568,021.9106,029.3338
350826725,-1578,0915,-0710,0014,0019,0013,091.1472,021.9305,029.8083
350832593,-1605,0949,-0728,0023,0015,0008,090.0906,021.2056,030.1352
350838357,-1613,0947,-0734,0026,0008,0007,089.9027,021.3470,030.6645
350844067,-1627,0959,-0700,0026,0003,0006,090.1907,021.4354,030.3809
350849722,-1613,0973,-0691,0025,-0006,0003,088.6599,020.2048,030.5272
350855407,-1632,0988,-0708,0023,-0012,0001,088.1626,020.1281,031.1721
350861161,-1644,0953,-0732,0019,-0019,0000,088.4563,020.3805,031.1867
350866838,-1650,0951,-0726,0011,-0018,-0002,090.1284,021.1316,029.9734
350872613,-1663,0945,-0736,0008,-0021,-0002,089.7819,020.8198,029.9498
350878312,-1672,0947,-0716,0008,-0019,0001,090.3286,021.0582,029.5656
350884039,-1645,0936,-0720,0010,-0009,-0001,089.5332,020.3586,029.5177
350889747,-1684,0953,-0716,0016,0003,-0002,090.0755,020.8859,029.6508
350895474,-1681,0951,-0734,0022,0010,0003,089.4289,020.2470,029.4882
350901230,-1645,0957,-0711,0030,0025,0006,090.1844,020.8803,029.4975
350906953,-1649,0961,-0722,0033,0033,0009,089.1409,020.4448,030.2772
350912731,-1678,0953,-0742,0033,0036,0015,089.5615,020.7692,030.2289
350918577,-1663,0953,-0711,0036,0038,0016,090.4114,021.0776,029.5169
350924450,-1645,0949,-0711,0030,0035,0017,089.2030,020.2579,029.8614
350930231,-1665,0945,-0733,0026,0028,0020,089.4866,020.5703,030.0021
350936028,-1648,0936,-0705,0025,0020,0021,090.3261,021.0035,029.5274
350941822,-1627,0928,-0705,0021,0022,0019,089.4629,020.3232,029.6086
350947655,-1619,0918,-0697,0021,0019,0020,089.8181,020.6801,029.7191
350953463,-1598,0929,-0705,0018,0020,0014,089.7528,020.5131,029.5337
350959267,-1598,0923,-0727,0019,0019,0009,089.7573,020.9273,030.2555
350965061,-1583,0920,-0729,0015,0016,0006,090.7045,021.5793,029.9774
350970845,-1597,0915,-0686,0015,0014,-0002,090.7369,021.7251,030.1805
350976611,-1589,0920,-0724,0021,0012,-0008,089.3968,020.3379,029.7737
350982399,-1597,0922,-0737,0016,0009,-0008,090.7348,021.6639,030.0998
350988132,-1592,0921,-0708,0018,0003,-0011,090.9702,021.7970,029.9781
350993961,-1643,0932,-0745,0018,-0007,-0015,089.9643,020.9656,030.0468
350999753,-1637,0937,-0700,0019,-0010,-0011,091.0827,021.5957,029.4860
351005551,-1631,0933,-0727,0013,-0013,-0010,089.1706,020.1714,029.8207
351011367,-1649,0935,-0723,0018,-0018,-0008,090.5539,021.2998,029.7540
351017155,-1679,0971,-0745,0017,-0014,-0006,090.1417,020.8104,029.5186
351022945,-1651,0964,-0745,0017,-0014,-0002,090.0007,021.0259,030.0952
351028727,-1668,0955,-0746,0021,-0004,-0002,090.2054,021.3188,030.2977
351034449,-1654,0961,-0738,0024,0004,0005,090.4468,021.2003,029.7381
351040125,-1657,0967,-0724,0025,0004,0003,089.9981,021.0841,030.1982
351045822,-1626,0952,-0723,0029,0017,0008,089.4258,020.6353,030.2730
351051606,-1658,0971,-0749,0028,0022,0008,089.8603,021.0518,030.3586
351057378,-1643,0961,-0710,0029,0026,0014,090.1888,021.3329,030.3563
351063201,-1646,0955,-0716,0026,0028,0017,089.0578,020.3415,030.3224
351069040,-1633,0938,-0705,0027,0034,0013,089.6061,020.6695,030.0943
351074892,-1665,0931,-0720,0026,0037,0020,089.5946,020.5106,029.8427
351080704,-1664,0926,-0733,0027,0035,0024,090.3311,020.7107,029.1329
351086529,-1658,0912,-0756,0027,0030,0026,090.8312,021.1098,029.0970
351092345,-1651,0913,-0736,0021,0025,0024,091.9585,021.8792,028.7789
351098171,-1648,0914,-0740,0023,0017,0023,091.0529,021.2310,028.9717
351104030,-1619,0931,-0728,0027,0008,0014,091.2959,021.4727,029.0201
351109813,-1593,0934,-0758,0032,0010,0011,090.3409,021.2700,030.0396
351115646,-1581,0942,-0709,0040,0002,0002,091.4571,022.4978,030.4362
351121311,-1583,0946,-0762,0041,0000,0000,089.4638,020.9577,030.8076
351126818,-1583,0961,-0744,0042,-0001,-0005,091.2809,022.6081,030.8587
351132552,-1570,0949,-0716,0043,-0005,-0004,090.0794,021.7894,031.3058
351138301,-1621,0950,-0697,0040,-0007,-0003,089.6088,021.2748,031.1277
351143959,-1624,0948,-0734,0039,-0007,0002,088.9588,020.2429,030.2782
351149688,-1645,0954,-0731,0038,-0006,0005,090.4024,021.4747,030.2677
351155378,-1646,0934,-0748,0040,-0002,0012,089.9380,020.9770,030.0908
351161094,-1646,0935,-0736,0044,-0002,0015,091.0980,021.6388,029.5056
351166874,-1631,0925,-0716,0044,0009,0022,090.4985,021.1970,029.6123
351172668,-1627,0926,-0720,0040,0011,0026,090.1325,020.8586,029.5547
351178505,-1643,0940,-0757,0040,0011,0029,090.2978,021.0707,029.6663
351184333,-1640,0925,-0777,0037,0018,0032,091.1716,021.9118,029.7982
351190199,-1658,0920,-0733,0037,0027,0029,092.1364,022.5121,029.3733
351196070,-1638,0924,-0752,0040,0026,0030,090.5952,020.9505,028.9833
351201859,-1656,0921,-0750,0040,0030,0029,091.3695,021.9346,029.5020
351207619,-1665,0928,-0717,0037,0024,0025,091.2595,021.5597,029.0335
351213497,-1628,0917,-0740,0036,0017,0025,089.8856,020.4802,029.1523
351219324,-1636,0910,-0713,0034,0011,0023,091.2367,021.8007,029.4355
351225140,-1627,0894,-0738,0029,0011,0019,090.2324,020.7081,029.0339
351230966,-1622,0920,-0741,0024,0011,0012,091.7775,021.8432,028.7464
351236810,-1639,0907,-0752,0017,0014,0003,090.8662,021.6430,029.6979
351242589,-1633,0911,-0740,0013,0012,0000,091.7676,021.9045,028.8519
351248267,-1615,0927,-0776,0011,0012,-0001,091.1104,021.5491,029.1918
351254055,-1622,0940,-0749,0011,0015,-0004,091.9902,022.7956,029.9591
351259836,-1630,0947,-0723,0016,0012,-0011,090.5902,021.6379,030.1045
351265669,-1630,0959,-0749,0021,0013,-0015,089.6924,020.8857,030.1534
351271503,-1627,0951,-0763,0022,0014,-0012,090.4204,021.7187,030.5103
351277313,-1641,0953,-0727,0027,0012,-0010,091.0006,022.0901,030.2686
351283092,-1651,0976,-0711,0029,0009,-0006,089.6398,020.8199,030.1224
351288802,-1633,0977,-0754,0030,0014,-0002,088.6785,020.2882,030.6374
351294570,-1649,0964,-0727,0032,0017,0001,090.2420,021.8014,030.9221
351300355,-1650,0971,-0694,0043,0019,0013,089.4596,020.7298,030.2370
351306193,-1655,0972,-0741,0044,0018,0018,088.1967,019.8184,030.5104
351312087,-1626,0973,-0732,0045,0020,0021,090.0189,021.3153,030.4153
351317870,-1633,0978,-0734,0044,0025,0026,089.4124,021.1043,030.9681
351323698,-1636,0957,-0739,0046,0025,0028,089.4336,021.0952,030.9151
351329523,-1634,0970,-0728,0042,0027,0028,090.1498,021.3402,030.2481
351335377,-1639,0950,-0714,0048,0031,0031,089.3153,020.9185,030.7682
351341187,-1605,0930,-0715,0046,0029,0027,089.4734,020.6250,030.0082
351347030,-1629,0915,-0713,0044,0030,0031,090.0297,021.1599,030.1089
351352853,-1641,0909,-0716,0044,0022,0025,090.2891,020.8533,029.2036
351358698,-1632,0907,-0717,0041,0020,0025,090.5235,020.9041,028.9512
351364469,-1644,0911,-0725,0046,0021,0029,090.5707,021.0326,029.0858
351370268,-1642,0929,-0729,0047,0017,0030,090.7255,021.1101,028.9829
351376084,-1646,0937,-0747,0052,0015,0027,090.3216,021.1376,029.5823
351381910,-1629,0935,-0732,0058,0010,0033,090.7734,021.5888,029.6651
351387730,-1631,0937,-0744,0059,0006,0027,090.2165,021.2526,029.8848
351393540,-1617,0944,-0721,0058,-0001,0021,090.6489,021.6339,029.8741
351399322,-1603,0940,-0738,0060,0002,0020,089.5653,020.9784,030.3348
351405036,-1618,0956,-0747,0055,-0005,0018,090.4155,021.7626,030.3923
351410809,-1612,0957,-0724,0054,0002,0017,090.1592,021.6690,030.6005
351416626,-1587,0967,-0744,0054,0001,0016,089.3540,021.0351,030.7083
351422457,-1595,0963,-0728,0055,-0001,0019,089.9041,021.9601,031.4680
351428231,-1596,0943,-0728,0052,0001,0020,089.3556,021.2547,031.0703
351433983,-1592,0933,-0746,0048,0000,0026,089.9513,021.4675,030.5125
351439663,-1625,0922,-0747,0044,0001,0026,090.7385,022.0813,030.3577
351445454,-1618,0922,-0740,0043,0005,0030,090.9661,021.7538,029.4617
351451217,-1605,0942,-0708,0040,0007,0031,090.6726,021.6617,029.7139
351456983,-1632,0907,-0723,0039,0008,0035,089.0301,020.7173,030.5112
351462740,-1610,0902,-0705,0037,0011,0033,090.7681,021.2349,028.8630
351468561,-1639,0888,-0717,0033,0008,0030,090.0045,020.8693,029.3140
351474316,-1626,0916,-0734,0029,0006,0031,090.9400,021.0623,028.3327
351480103,-1649,0931,-0725,0029,-0001,0030,090.5897,021.5344,029.5765
351485853,-1638,0927,-0724,0032,-0008,0025,089.9025,020.8704,029.4348
351491614,-1640,0956,-0726,0038,-0012,0022,090.0604,021.0606,029.5179
351497450,-1648,0966,-0726,0041,-0018,0018,089.3018,020.9031,030.3467
351503303,-1630,0978,-0754,0038,-0030,0015,089.1359,020.7854,030.3781
351509065,-1633,0970,-0763,0037,-0028,0011,089.7942,021.7418,031.0389
351514892,-1628,0964,-0752,0035,-0035,0008,090.1996,021.8930,030.6590
351520631,-1624,0973,-0769,0032,-0030,0012,089.9251,021.6376,030.6238
351526464,-1621,0983,-0714,0037,-0025,0006,090.2870,022.1667,030.9649
351532237,-1615,0952,-0745,0038,-0019,0006,088.1239,020.4330,031.2615
351538003,-1624,0955,-0760,0036,-0011,0013,090.2974,021.8505,030.4055
351543859,-1642,0948,-0735,0033,-0005,0018,090.4014,021.9849,030.4660
351549640,-1653,0921,-0720,0031,0002,0026,089.7183,021.0874,029.9452
351555431,-1634,0924,-0725,0025,0013,0027,090.0222,020.7985,029.0203
351561236,-1638,0919,-0713,0018,0020,0031,090.0769,021.1715,029.5717
351567048,-1653,0909,-0708,0016,0027,0034,089.7793,020.7342,029.2638
351572910,-1673,0911,-0735,0020,0030,0039,089.9335,020.5523,028.7472
351578694,-1687,0925,-0733,0022,0033,0038,090.8276,021.1802,028.5581
351584521,-1685,0923,-0735,0023,0031,0037,090.2420,020.8224,028.7710
351590420,-1669,0931,-0702,0025,0029,0033,090.4469,020.9590,028.7142
351596237,-1673,0946,-0703,0023,0024,0024,089.0035,020.0646,029.2204
351602041,-1652,0966,-0759,0025,0013,0015,088.8369,020.0963,029.5232
351607829,-1633,0968,-0753,0026,0008,0002,090.2831,021.8473,030.4239
351613575,-1612,0967,-0759,0022,0002,-0005,089.8449,021.6078,030.6804
351619288,-1607,0964,-0760,0020,-0008,-0014,090.1261,022.0310,030.9841
351625042,-1604,0966,-0747,0022,-0011,-0019,090.2040,022.0748,030.9414
351630909,-1601,0959,-0745,0019,-0009,-0015,089.6972,021.6899,031.0655
351636642,-1620,0946,-0767,0019,-0002,-0014,089.9020,021.7675,030.8910
351642433,-1638,0949,-0750,0022,0005,-0007,090.9662,022.3025,030.1888
351648140,-1632,0961,-0756,0018,0012,0003,090.1763,021.5344,030.0725
351653888,-1642,0935,-0731,0022,0016,0009,090.1560,021.7925,030.5463
351659682,-1649,0925,-0729,0015,0025,0016,090.0058,021.0686,029.5459
351665490,-1656,0938,-0729,0013,0030,0017,090.2434,021.0928,029.2582
351671401,-1656,0912,-0726,0011,0034,0026,089.8486,020.9438,029.5809
351677274,-1667,0913,-0729,0012,0035,0030,090.5492,021.0246,028.7394
351683049,-1625,0918,-0735,0012,0037,0027,090.5274,020.9869,028.7146
351688848,-1637,0914,-0714,0016,0034,0028,090.6065,021.5870,029.5975
351694691,-1601,0930,-0721,0014,0026,0023,089.9486,020.7369,029.1180
351700514,-1593,0921,-0727,0017,0023,0016,089.8633,021.3627,030.3151
351706390,-1594,0934,-0709,0019,0019,0012,090.3402,021.5883,029.9976
351712218,-1602,0924,-0731,0016,0015,0007,089.2937,020.9202,030.4145
351717996,-1581,0937,-0716,0014,0014,0002,090.4887,021.6565,029.9126
351723759,-1584,0931,-0719,0009,0011,-0002,089.4765,021.2434,030.7299
351729508,-1605,0948,-0713,0009,0011,-0004,089.8555,021.3828,030.4116
351735260,-1616,0948,-0711,0009,0007,-0005,089.1527,020.8647,030.5855
351740931,-1622,0954,-0705,0008,0006,-0004,089.1931,020.7666,030.3685
351746574,-1634,0963,-0722,0013,-0001,-0002,088.8289,020.5050,030.4691
351752306,-1629,0960,-0726,0015,0000,-0001,089.2467,020.8796,030.5142
351757886,-1653,0963,-0744,0014,-0002,0002,089.4112,021.0120,030.5080
351763611,-1644,0944,-0734,0010,-0007,0007,089.9258,021.2704,030.1907
351769296,-1636,0954,-0728,0010,-0004,0007,090.0329,021.1465,029.8265
351774985,-1641,0942,-0742,0009,0002,0012,089.5547,021.0071,030.3010
351780657,-1651,0943,-0754,0013,0004,0015,090.4108,021.4556,029.8086
351786425,-1649,0955,-0733,0018,0005,0017,090.6923,021.6518,029.7266
351792247,-1653,0941,-0741,0015,0016,0020,089.6137,020.9567,030.1296
351798044,-1661,0962,-0765,0016,0017,0023,090.4188,021.3298,029.5936
351803902,-1645,0945,-0729,0013,0027,0022,090.5690,021.7888,030.1517
351809776,-1649,0929,-0734,0011,0028,0019,089.7715,020.9113,029.8418
351815620,-1626,0938,-0704,0002,0029,0020,090.5214,021.2424,029.3366
351821375,-1636,0925,-0734,0001,0027,0012,089.0946,020.4581,030.0785
351827113,-1619,0934,-0726,0000,0025,0006,090.7457,021.4563,029.4026
351832698,-1595,0930,-0725,0001,0022,0006,090.0109,021.2008,030.0495
351838372,-1604,0915,-0714,0003,0015,0005,090.1760,021.4629,030.2674
351844096,-1588,0929,-0732,0003,0017,0001,090.1948,021.1040,029.6429
351849817,-1610,0945,-0739,0012,0011,0000,090.4443,021.7656,030.4073
351855506,-1621,0934,-0764,0016,0003,-0001,090.2256,021.5708,030.4071
351861196,-1600,0936,-0747,0013,-0003,-0003,091.3917,022.2902,029.8861
351866880,-1597,0956,-0734,0017,-0007,-0007,090.6116,021.8964,030.3792
351872607,-1608,0958,-0740,0017,-0005,-0001,089.7288,021.4615,030.9771
351878355,-1608,0944,-0751,0014,-0005,0000,090.0123,021.5807,030.7537
351883938,-1621,0958,-0747,0011,-0002,0001,090.7063,021.9718,030.3747
351889650,-1630,0943,-0727,0012,0005,0000,090.1295,021.5941,030.6057
351895233,-1631,0934,-0721,0009,0006,0004,089.9265,021.0581,029.9947
351900873,-1629,0939,-0731,0010,0012,0007,089.9892,020.9776,029.7746
351906615,-1653,0948,-0725,0010,0019,0008,090.2086,021.2838,029.9878
351912384,-1621,0941,-0763,0009,0019,0011,089.7355,020.7736,029.8175
351918163,-1621,0941,-0720,0006,0017,0012,091.3158,022.3632,030.1885
351923930,-1617,0942,-0736,0006,0019,0012,089.6028,020.8276,030.1315
351929679,-1610,0930,-0741,0004,0015,0018,090.3887,021.5635,030.2428
351935467,-1615,0933,-0736,0007,0011,0012,090.7872,021.7528,029.9789
351941253,-1615,0941,-0740,0012,0007,0017,090.4653,021.4987,030.0245
351947049,-1626,0943,-0744,0014,0002,0010,090.4355,021.6103,030.2594
351952793,-1633,0946,-0737,0017,0003,0006,090.5262,021.5893,030.0898
351958538,-1607,0956,-0764,0017,-0003,0004,090.1915,021.2926,030.0799
351964270,-1624,0974,-0748,0017,-0005,0005,090.8855,022.3553,030.8443
351970035,-1616,0945,-0741,0011,-0010,0001,089.7900,021.4441,030.9631
351975777,-1627,0935,-0728,0008,-0008,-0001,090.4635,021.6069,030.2254
351981455,-1643,0953,-0758,0006,-0004,-0003,090.1989,021.1466,029.8389
351987122,-1641,0927,-0760,0005,0002,-0006,090.7737,021.8190,030.1416
351992762,-1633,0921,-0754,0000,0006,-0007,091.4734,021.9711,029.3859
351998345,-1649,0916,-0757,-0009,0007,-0002,091.3652,021.8958,029.4254
352004036,-1639,0931,-0727,-0006,0016,-0006,091.6293,021.8596,029.0057
352009769,-1662,0928,-0767,-0003,0014,-0004,090.1442,020.9852,029.6738
352015486,-1652,0922,-0748,-0003,0018,-0006,091.7882,022.0556,029.1168
352021217,-1646,0928,-0759,-0001,0021,-0006,091.1295,021.5132,029.1696
352026954,-1641,0957,-0728,-0002,0022,-0007,091.4290,021.9326,029.4428
352032711,-1657,0959,-0764,0004,0020,-0010,089.5566,020.8431,030.3484
352038429,-1631,0947,-0754,0005,0017,-0008,090.9517,021.8555,030.0236
352044184,-1614,0943,-0739,0008,0018,-0010,090.7898,021.7829,030.1502
352049961,-1600,0957,-0746,0007,0014,-0005,090.4072,021.5379,030.3138
352055688,-1601,0966,-0722,0006,0013,-0011,090.3389,021.8460,030.9625
352061481,-1592,0942,-0742,0004,0014,-0007,089.2894,020.9998,031.1228
352067195,-1571,0948,-0728,0003,0011,-0006,090.7749,021.9681,030.5407
352072921,-1584,0957,-0754,0002,0015,-0004,089.9718,021.6055,031.1636
352078656,-1591,0933,-0731,0002,0013,-0003,090.7160,022.2481,031.1329
352084395,-1592,0931,-0726,0002,0017,0000,090.4810,021.5495,030.3057
352090018,-1593,0929,-0733,-0002,0017,0005,090.3996,021.4796,030.3217
352095749,-1627,0947,-0711,-0001,0014,0008,090.7093,021.6980,030.2433
352101478,-1620,0942,-0758,0006,0011,0007,089.4226,020.5562,030.1969
352107211,-1625,0918,-0757,0008,0008,0008,091.3722,022.2326,030.1750
352112865,-1639,0947,-0741,0008,0004,0007,091.7177,022.0550,029.3801
352118549,-1633,0939,-0746,0009,-0004,0008,090.3454,021.2921,030.0928
352124299,-1613,0933,-0734,0004,-0005,0003,090.8985,021.6388,029.8713
352129969,-1624,0938,-0733,0005,-0007,0000,090.5767,021.4725,030.0659
352135535,-1621,0936,-0728,-0002,-0003,-0002,090.4578,021.3261,030.0014
352141186,-1605,0924,-0726,0003,-0005,-0003,090.3583,021.2345,029.9991
352146841,-1625,0914,-0750,0008,-0001,-0005,090.6331,021.4192,029.9158
352152452,-1618,0921,-0733,0007,-0001,-0004,091.7003,021.9649,029.2859
352158131,-1604,0919,-0740,0011,0002,0000,090.7862,021.4220,029.6946
352163767,-1587,0937,-0753,0014,0002,0002,091.2007,021.8582,029.8206
352169488,-1615,0935,-0745,0015,-0002,0012,091.0942,022.2688,030.6601
352175286,-1595,0937,-0749,0013,-0003,0018,090.8813,021.6833,029.9858
352181075,-1600,0958,-0741,0018,-0004,0021,090.9911,022.0939,030.5062
352186875,-1621,0953,-0759,0021,-0011,0028,090.1157,021.5971,030.9793
352192704,-1619,0957,-0739,0023,-0012,0031,090.9881,022.0309,030.3794
352198532,-1627,0964,-0732,0022,-0014,0036,090.0501,021.3568,030.6270
352204389,-1634,0964,-0727,0022,-0012,0035,089.7551,021.1221,030.6579
352210183,-1634,0957,-0736,0025,-0012,0034,089.6219,020.9387,030.5298
352215993,-1640,0981,-0749,0034,-0011,0031,090.1346,021.2785,030.3364
352221866,-1660,0967,-0748,0041,-0009,0032,089.8664,021.4178,030.9723
352227631,-1653,0980,-0749,0051,-0011,0032,090.2121,021.2568,030.1433
352233489,-1654,0986,-0769,0061,-0013,0033,089.8502,021.2994,030.7350
352239303,-1640,0973,-0732,0064,-0015,0032,090.3800,021.8270,030.8091
352245152,-1649,0973,-0727,0067,-0016,0033,089.3817,020.8876,030.6638
352250966,-1625,0985,-0744,0069,-0012,0036,089.3282,020.7813,030.5292
352256792,-1637,0992,-0746,0069,-0009,0034,089.5925,021.4757,031.3287
352262580,-1654,0964,-0721,0063,-0008,0039,089.4246,021.2729,031.2059
352268339,-1646,0970,-0734,0063,-0005,0042,089.2932,020.5684,030.1318
352274103,-1661,0964,-0717,0060,-0006,0044,089.5830,021.0767,030.5680
352279845,-1657,0969,-0745,0061,-0003,0047,089.1033,020.4091,030.0896
352285616,-1644,0947,-0740,0052,-0003,0048,089.9712,021.3147,030.3577
352291365,-1660,0922,-0774,0055,0005,0048,090.2598,021.3120,029.9014
352297146,-1656,0922,-0725,0057,0010,0044,092.0363,022.2927,028.9485
352302944,-1663,0926,-0729,0057,0013,0041,090.0902,020.7597,029.1360
352308775,-1607,0923,-0721,0057,0018,0040,090.3729,020.9949,029.1139
352314608,-1617,0929,-0725,0055,0024,0037,090.1180,021.3112,029.9958
352320411,-1617,0938,-0740,0059,0026,0035,090.1214,021.2472,029.8654
352326255,-1605,0914,-0752,0053,0027,0031,090.3934,021.6677,030.1650
352332085,-1583,0929,-0754,0051,0021,0028,091.4282,022.2396,029.5846
352337953,-1580,0926,-0709,0048,0019,0030,090.8957,022.3558,030.5377
352343756,-1578,0926,-0703,0046,0017,0029,089.5383,021.0652,030.3637
352349621,-1565,0926,-0746,0039,0009,0028,089.4449,021.0166,030.4141
352355384,-1578,0938,-0701,0045,0004,0026,090.9051,022.4433,030.6359
352361134,-1602,0933,-0726,0043,-0001,0020,088.9424,020.7769,030.7357
352366878,-1589,0929,-0722,0039,-0011,0016,090.1206,021.4638,030.1446
352372739,-1584,0919,-0723,0035,-0013,0009,089.9236,021.4065,030.3303
352378515,-1594,0917,-0731,0029,-0013,0006,090.2440,021.5520,030.0953
352384277,-1627,0929,-0716,0027,-0010,0003,090.5387,021.6874,029.8842
352390035,-1639,0926,-0713,0024,-0012,0007,089.6276,020.7990,029.7001
352395796,-1637,0948,-0722,0025,-0010,0005,089.7348,020.7302,029.4277
352401503,-1640,0944,-0739,0019,-0007,0009,089.4413,020.9051,030.1598
352407223,-1632,0950,-0737,0018,-0003,0009,090.1777,021.3815,029.8940
352412932,-1661,0954,-0758,0021,0000,0008,089.8588,021.3087,030.2417
352418558,-1656,0957,-0711,0023,0000,0013,090.4804,021.6121,029.8378
352424258,-1648,0978,-0728,0029,0004,0011,088.7533,020.2589,030.0422
352430037,-1651,0971,-0727,0032,0007,0011,089.0008,020.8749,030.7723
352435789,-1660,0970,-0720,0035,0009,0011,089.1174,020.7765,030.4225
352441535,-1665,0970,-0742,0034,0006,0011,088.8905,020.5031,030.2834
352447277,-1636,0987,-0702,0038,0008,0012,089.6641,021.1252,030.2158
352453044,-1657,0987,-0719,0040,0008,0013,087.7580,020.0508,031.2171
352458794,-1658,0975,-0732,0038,0012,0010,088.5956,020.4939,030.7282
352464570,-1632,0961,-0713,0040,0014,0014,089.2490,020.8815,030.4246
352470357,-1628,0960,-0716,0038,0009,0019,088.8652,020.5969,030.5021
352476123,-1625,0953,-0688,0038,0011,0022,089.0530,020.7741,030.5330
352481930,-1608,0948,-0731,0032,0007,0018,088.1961,019.9557,030.3696
352487733,-1629,0949,-0728,0032,0004,0021,090.0332,021.6296,030.5502
352493544,-1614,0961,-0736,0030,0007,0023,089.6004,021.0410,030.1805
352499294,-1625,0940,-0726,0034,0001,0025,089.6164,021.4477,030.8605
352505006,-1608,0933,-0737,0037,-0001,0021,089.8216,021.1034,029.9460
352510812,-1588,0944,-0751,0041,-0003,0018,090.3756,021.7117,030.1521
352516585,-1598,0936,-0720,0042,-0008,0018,090.4552,022.1835,030.8165
352522372,-1592,0951,-0740,0042,-0007,0016,089.5883,021.1268,030.3004
352528199,-1589,0961,-0750,0044,-0011,0016,089.9907,021.8578,030.9435
352533998,-1602,0948,-0742,0050,-0011,0019,089.9887,022.0135,031.1982
352539820,-1600,0956,-0714,0050,-0009,0025,090.0473,021.6884,030.5252
352545571,-1607,0936,-0734,0049,-0006,0023,088.8407,020.8589,030.9048
352551318,-1628,0947,-0746,0051,-0006,0028,090.2451,021.6397,030.1181
352557079,-1630,0943,-0712,0050,-0009,0026,090.1367,021.6033,030.1964
352562815,-1627,0933,-0721,0050,-0008,0023,089.0625,020.5933,030.0312
352568564,-1621,0914,-0726,0038,-0009,0023,089.7941,021.0883,029.8040
352574349,-1644,0953,-0724,0038,-0005,0020,090.3959,021.3443,029.3577
352580187,-1629,0929,-0716,0039,-0003,0020,089.1442,020.7830,030.2109
352585947,-1642,0941,-0740,0045,-0003,0020,089.6936,020.9140,029.6204
352591669,-1633,0965,-0733,0049,-0007,0024,090.1137,021.4135,029.8420
352597452,-1642,0966,-0725,0059,-0009,0020,089.1639,021.0894,030.6807
352603181,-1618,0964,-0740,0064,-0013,0017,088.9812,020.8052,030.4384
352609040,-1626,0968,-0720,0063,-0020,0021,089.5661,021.5551,030.8403
352614843,-1632,0983,-0757,0064,-0020,0017,088.6611,020.7281,030.7507
352620677,-1620,0977,-0744,0059,-0020,0015,089.6519,021.8045,031.1016
352626476,-1632,0966,-0737,0058,-0018,0017,089.2154,021.4205,031.0878
352632324,-1640,0949,-0734,0055,-0013,0019,089.3114,021.2096,030.5518
352638175,-1622,0945,-0738,0045,-0011,0021,089.6348,021.1678,029.9826
352644016,-1609,0937,-0733,0042,-0002,0023,089.8309,021.5095,030.2664
352649772,-1609,0933,-0723,0041,0000,0030,089.8330,021.4858,030.2107
352655407,-1630,0930,-0733,0041,0003,0028,089.5896,021.2154,030.0994
352661170,-1624,0918,-0742,0039,0004,0029,090.0473,021.3537,029.6555
352666968,-1634,0917,-0723,0039,0007,0026,090.6336,021.7456,029.4537
352672757,-1640,0917,-0736,0034,0007,0024,089.8854,021.0065,029.2821
352678496,-1634,0913,-0715,0036,0004,0020,090.4521,021.4453,029.2028
352684245,-1631,0912,-0726,0037,0002,0017,089.7261,020.8294,029.1928
352690039,-1648,0911,-0728,0041,-0002,0015,090.2564,021.2958,029.2135
352695796,-1650,0932,-0726,0039,-0001,0011,090.2666,021.1149,028.8918
352701576,-1644,0943,-0739,0039,-0005,0005,089.5960,020.9388,029.5342
352707285,-1634,0948,-0745,0036,-0007,0002,089.8365,021.3449,029.8703
352713040,-1631,0948,-0763,0040,-0004,0005,089.8741,021.5461,030.1492
352718738,-1638,0964,-0728,0036,-0001,0001,090.4671,022.0789,030.1621
352724435,-1637,0948,-0756,0036,0000,0001,088.8062,020.8320,030.5065
352730029,-1641,0968,-0751,0034,0001,0000,090.3333,021.8797,030.0251
352735609,-1630,0966,-0723,0034,0002,0002,089.5086,021.4807,030.5752
352741315,-1628,0945,-0744,0035,0004,-0005,088.6938,020.8147,030.6534
352747034,-1630,0953,-0721,0029,0011,0000,090.0749,021.6668,030.0598
352752731,-1620,0947,-0753,0023,0011,0000,088.8962,020.8057,030.3398
352758400,-1604,0932,-0735,0019,0016,0001,090.3035,022.0030,030.3022
352764181,-1627,0919,-0713,0014,0016,0004,089.9156,021.5584,030.1367
352769945,-1618,0907,-0733,0013,0014,0005,089.5578,020.7889,029.3627
352775735,-1616,0909,-0711,0009,0016,0003,090.6878,021.6816,029.2588
352781450,-1615,0908,-0736,0008,0020,0002,089.7039,020.9012,029.3679
352787174,-1605,0884,-0727,0011,0020,0001,090.7514,021.7737,029.3411
352792913,-1616,0893,-0760,0012,0021,-0002,090.9821,021.6309,028.7950
352798677,-1628,0926,-0741,0012,0018,-0007,091.8675,022.4894,028.9397
352804468,-1613,0916,-0764,0014,0016,-0009,090.1249,021.4530,029.7260
352810258,-1626,0923,-0758,0016,0009,-0011,091.4744,022.5346,029.5616
352816133,-1629,0950,-0740,0015,0010,-0014,090.8537,021.9924,029.5754
352821920,-1631,0951,-0732,0017,0001,-0020,089.5940,021.3409,030.3331
352827669,-1643,0962,-0735,0017,-0005,-0020,089.4747,021.1661,030.2210
352833400,-1634,0967,-0754,0013,-0001,-0019,089.3156,021.0965,030.3537
352839194,-1646,0978,-0726,0015,0002,-0015,089.8614,021.7330,030.6436
352844933,-1650,0982,-0741,0016,0002,-0012,088.5831,020.6533,030.7167
352850714,-1660,0975,-0744,0023,0007,-0005,089.1493,021.1574,030.7576
352856420,-1656,0986,-0739,0025,0012,0002,089.3626,021.1283,030.3911
352862156,-1666,0985,-0737,0029,0016,0010,088.9050,020.9657,030.8107
352867980,-1685,0967,-0744,0027,0012,0013,088.9172,020.8345,030.5678
352873810,-1633,0979,-0752,0026,0018,0016,089.6153,020.9718,029.7733
352879658,-1624,0962,-0721,0023,0019,0019,089.4958,021.6446,031.1281
352885498,-1619,0948,-0740,0018,0027,0018,088.9006,020.8028,030.5748
352891351,-1621,0948,-0742,0019,0032,0022,090.0555,021.6523,030.3207
352897179,-1596,0928,-0732,0015,0032,0020,089.9456,021.5531,030.3264
352903011,-1595,0912,-0690,0014,0028,0013,090.1694,021.6437,030.1581
352908837,-1608,0925,-0710,0014,0022,0013,089.1232,020.4900,029.7273
352914667,-1585,0890,-0711,0015,0021,0009,089.6080,021.0128,029.9374
352920456,-1597,0907,-0725,0019,0012,0009,090.5148,021.3883,029.2684
352926218,-1595,0915,-0740,0021,0004,0002,090.4597,021.5570,029.6264
352931970,-1607,0913,-0714,0009,0000,-0003,090.7625,021.9611,029.8635
352937503,-1606,0925,-0734,0002,-0009,-0003,089.9154,021.0549,029.5807
352943121,-1622,0928,-0732,-0003,-0016,-0005,090.3486,021.6578,029.9784
352948867,-1626,0920,-0714,-0012,-0016,-0004,090.1498,021.3379,029.7432
352954624,-1621,0909,-0737,-0016,-0012,-0012,089.7743,020.8392,029.4603
352960432,-1621,0959,-0722,-0016,-0008,-0004,090.9991,021.7488,029.2503
352966166,-1655,0947,-0701,-0016,-0007,-0002,088.9178,020.8507,030.7976
352971913,-1627,0934,-0709,-0017,-0005,0001,088.7986,020.0931,029.6584
352977634,-1653,0949,-0702,-0014,-0001,0003,089.4816,020.7815,029.8887
352983359,-1660,0935,-0751,-0017,-0002,0010,088.7500,020.1380,029.8606
352989092,-1641,0949,-0748,-0017,0002,0012,090.9409,021.6744,029.3366
352994919,-1638,0940,-0701,-0013,0006,0011,090.1934,021.5047,030.1486
353000687,-1633,0948,-0735,-0016,0008,0008,088.9065,020.2026,029.8140
353006410,-1642,0931,-0737,-0015,0012,0011,090.0938,021.4108,030.1868
353012252,-1641,0920,-0714,-0018,0011,0004,090.4868,021.3084,029.4623
353018083,-1624,0930,-0732,-0021,0014,0003,089.9277,020.6954,029.2507
353023899,-1625,0918,-0719,-0024,0008,-0001,090.4044,021.4642,029.8911
353029578,-1616,0925,-0708,-0021,0010,-0006,090.2253,021.0092,029.4067
353035313,-1610,0940,-0720,-0009,0009,-0010,089.6811,020.7864,029.8335
353041078,-1602,0951,-0720,-0005,-0001,-0012,089.7871,021.1589,030.3417
353046785,-1627,0961,-0708,-0004,-0004,-0014,089.4911,021.1162,030.7363
353052519,-1627,0943,-0721,-0002,-0015,-0012,088.8583,020.4512,030.5388
353058249,-1628,0972,-0754,-0002,-0021,-0013,089.8932,021.0343,030.0262
353064073,-1642,0961,-0749,-0004,-0028,-0008,090.1227,021.7655,030.9557
353069792,-1664,0966,-0758,-0005,-0026,-0007,090.2133,021.4406,030.2645
353075546,-1657,0965,-0763,-0004,-0024,-0001,090.3750,021.4923,030.1185
353081271,-1665,0960,-0759,-0001,-0022,0008,090.5480,021.7052,030.2255
353086972,-1661,0968,-0732,0001,-0016,0011,090.5309,021.5220,029.9425
353092784,-1658,0967,-0761,-0003,-0009,0013,089.4159,020.7489,030.2714
353098509,-1657,0948,-0763,-0003,0002,0017,090.5546,021.7181,030.2552
353104232,-1639,0946,-0750,-0003,0016,0013,091.0034,021.7905,029.7274
353110064,-1651,0936,-0767,0004,0031,0011,090.5797,021.5986,030.0355
353115863,-1630,0953,-0748,0005,0036,0012,091.4949,022.0650,029.4912
353121662,-1646,0941,-0727,0009,0039,0012,090.2722,021.5537,030.4356
353127452,-1651,0924,-0734,0007,0044,0009,090.0587,020.9126,029.6716
353133183,-1634,0929,-0739,0002,0033,0007,090.8060,021.2455,029.1806
353138918,-1613,0932,-0705,-0001,0022,0003,090.7517,021.4934,029.6826
353144667,-1618,0945,-0721,0003,0019,0003,089.4867,020.6268,030.0639
353150371,-1605,0929,-0726,0008,0015,0006,089.8847,021.1045,030.3191
353156072,-1594,0945,-0728,0014,0005,0007,090.4373,021.4113,030.0297
353161803,-1576,0949,-0746,0021,0000,0003,090.0065,021.4495,030.7433
353167433,-1565,0973,-0760,0030,-0002,0000,090.5584,022.1382,031.0819
353173050,-1587,0964,-0721,0037,-0009,-0001,090.3357,022.4419,031.9568
353178763,-1594,0988,-0727,0042,-0010,0000,089.2937,021.0786,031.1904
353184406,-1602,0988,-0741,0044,-0013,-0001,089.0124,021.2002,031.8590
353190214,-1631,0980,-0746,0048,-0009,0004,089.5212,021.5317,031.6264
353195951,-1632,0980,-0734,0051,-0005,0009,089.8038,021.3948,030.9217
353201666,-1657,0952,-0698,0048,-0007,0017,089.3570,021.0490,030.9894
353207456,-1656,0948,-0723,0046,-0001,0027,088.8704,019.9453,029.7468
353213241,-1669,0928,-0720,0043,0004,0031,089.9302,020.8659,029.8004
353219039,-1673,0911,-0713,0043,0005,0040,090.2106,020.6337,028.9904
353224772,-1651,0919,-0703,0045,0004,0041,090.3838,020.5086,028.5263
353230534,-1634,0905,-0722,0048,0013,0046,089.7544,020.3988,029.1968
353236351,-1633,0901,-0748,0054,0016,0043,090.9490,021.2640,028.9528
353242203,-1626,0895,-0728,0055,0017,0040,091.7962,021.9631,028.8838
353248035,-1595,0911,-0742,0060,0012,0039,091.0912,021.3428,028.8277
353253825,-1610,0928,-0745,0057,0010,0031,091.2102,022.0933,029.8608
353259656,-1606,0917,-0707,0055,0007,0023,090.7956,021.8118,029.9751
353265413,-1589,0917,-0747,0055,0005,0019,089.8337,020.8297,029.6971
353271163,-1596,0928,-0733,0055,0004,0015,091.3256,022.3310,030.0234
353276914,-1593,0943,-0737,0047,-0005,0011,090.3396,021.5721,030.1901
353282711,-1626,0929,-0741,0042,-0010,0014,090.1759,021.7267,030.6864
353288525,-1615,0927,-0727,0042,-0016,0014,090.7094,021.5629,029.5992
353294385,-1614,0939,-0708,0042,-0019,0020,090.1617,021.2801,029.8977
353300193,-1638,0925,-0703,0041,-0021,0021,089.2202,020.6783,030.2343
353306025,-1626,0941,-0700,0038,-0018,0025,089.5624,020.4555,029.3352
353311812,-1631,0932,-0707,0037,-0016,0026,088.9439,020.4261,030.1767
353317686,-1633,0934,-0737,0039,-0009,0026,089.5506,020.6546,029.6742
353323487,-1652,0946,-0742,0041,-0006,0024,090.4648,021.5062,029.7834
353329245,-1645,0936,-0709,0043,-0006,0026,090.1639,021.2670,029.8007
353335021,-1651,0951,-0716,0047,-0005,0019,089.3008,020.4366,029.6167
353340791,-1648,0934,-0715,0041,-0009,0018,089.2555,020.6147,029.9859
353346557,-1629,0931,-0683,0038,-0007,0019,089.6805,020.6852,029.4817
353352356,-1633,0932,-0760,0035,-0009,0014,088.5162,019.8950,029.7868
353358114,-1613,0904,-0739,0033,-0009,0014,091.4121,022.3229,029.7019
353363889,-1624,0914,-0702,0026,-0006,0013,091.0482,021.7092,029.2100
353369637,-1607,0921,-0736,0020,-0003,0013,089.4911,020.5001,029.3916
353375397,-1604,0930,-0684,0016,0001,0016,090.7259,021.8453,029.8854
353381184,-1604,0915,-0733,0014,0008,0017,088.4926,020.0771,030.1316
353387014,-1614,0922,-0732,0014,0013,0017,090.9562,021.8887,029.6406
353392885,-1629,0916,-0717,0017,0014,0017,090.3472,021.4296,029.7568
353398757,-1643,0942,-0736,0019,0013,0012,090.0789,020.9167,029.2826
353404588,-1645,0945,-0761,0014,0005,0010,090.0757,021.2830,029.9115
353410345,-1662,0948,-0725,0016,0000,0010,090.8440,021.9274,029.8710
353416007,-1676,0944,-0731,0015,-0012,0008,089.4655,020.6315,029.6823
353421728,-1664,0968,-0764,0017,-0015,0007,089.9151,020.8175,029.3556
353427477,-1641,0973,-0739,0019,-0018,0002,090.3450,021.7338,030.2810
353433281,-1644,0966,-0771,0019,-0016,-0001,089.3271,021.0915,030.7088
353439070,-1636,0963,-0740,0019,-0008,-0001,090.7100,022.1275,030.3974
353444792,-1629,0971,-0776,0013,-0006,-0006,089.5919,021.1923,030.4855
353450507,-1614,0960,-0734,0008,-0001,-0001,090.7083,022.3790,030.8332
353456182,-1628,0947,-0739,0008,0005,-0009,089.4854,021.2236,030.7274
353461826,-1625,0957,-0712,0007,0017,-0008,090.1546,021.4461,030.1202
353467564,-1631,0930,-0704,0003,0019,-0011,088.8832,020.5799,030.5396
353473378,-1628,0932,-0742,0006,0024,-0011,089.5287,020.5517,029.5565
353479161,-1626,0914,-0723,0009,0026,-0011,090.7551,021.7450,029.8212
353484992,-1637,0929,-0721,0006,0029,-0002,090.4066,021.1024,029.2639
353490704,-1612,0921,-0716,0015,0028,0003,089.9821,020.9454,029.6158
353496488,-1624,0947,-0723,0019,0026,0009,090.0886,021.1153,029.7595
353502310,-1614,0949,-0732,0021,0024,0015,089.6069,021.0282,030.3281
353508154,-1609,0956,-0742,0026,0016,0017,089.9508,021.4108,030.4782
353513993,-1614,0977,-0732,0029,0014,0025,090.0522,021.6647,030.7612
353519833,-1605,0994,-0725,0029,0010,0024,089.1341,021.1366,031.2574
353525606,-1625,0964,-0696,0030,0007,0025,088.6035,020.9904,031.8491
353531300,-1629,0991,-0736,0027,-0003,0026,088.4285,020.1286,030.5462
353537089,-1601,0970,-0717,0030,-0006,0026,089.1591,021.2434,031.4299
353542818,-1614,0956,-0732,0027,-0003,0026,088.9402,020.9153,031.1843
353548624,-1609,0939,-0711,0033,-0002,0026,089.8675,021.3759,030.5594
353554420,-1614,0939,-0723,0036,0001,0029,089.4365,020.8197,030.2305
353560211,-1615,0942,-0722,0032,0007,0035,089.9280,021.2226,030.1918
353565984,-1602,0923,-0740,0029,0009,0032,089.7300,021.1000,030.2711
353571753,-1619,0921,-0735,0029,0014,0030,090.9104,021.9183,029.9094
353577563,-1626,0933,-0727,0032,0013,0034,090.6106,021.4781,029.5996
353583407,-1625,0943,-0727,0029,0010,0030,090.0238,021.1524,029.8940
353589186,-1622,0915,-0725,0030,0004,0030,089.8358,021.1539,030.1677
353594886,-1625,0915,-0748,0025,-0001,0023,090.5576,021.2838,029.3332
353600625,-1631,0920,-0745,0022,-0006,0022,091.2628,021.9346,029.3932
353606406,-1612,0916,-0738,0019,-0003,0014,090.9090,021.6555,029.4314
353612174,-1604,0928,-0765,0013,-0002,0014,090.8238,021.7064,029.6342
353617969,-1619,0928,-0725,0011,-0002,0010,091.4367,022.5460,030.1212
353623702,-1629,0930,-0734,0012,-0002,0007,089.9638,021.0511,029.7805
353629430,-1661,0941,-0742,0008,-0005,0003,090.4309,021.4075,029.7114
353635113,-1656,0949,-0726,0005,-0003,0002,090.3496,021.2149,029.5115
353640764,-1655,0962,-0746,0013,0002,-0007,089.6164,020.7803,029.8408
353646482,-1669,0965,-0754,0011,0006,-0008,090.0431,021.3472,030.2000
353652252,-1667,0964,-0732,0016,0006,-0011,090.1916,021.3596,030.0097
353658040,-1677,0979,-0713,0012,0010,-0010,089.4680,020.7474,030.0365
353663792,-1638,0970,-0734,0008,0009,-0006,088.5352,020.0967,030.2955
353669434,-1639,0971,-0724,0007,0013,-0006,089.5945,021.1961,030.6678
353675211,-1633,0965,-0689,0006,0016,-0002,089.1202,020.7578,030.6382
353680958,-1634,0976,-0721,0004,0019,0005,088.1150,019.8569,030.5732
353686661,-1615,0957,-0740,0003,0024,0011,089.1128,020.8626,030.8896
353692455,-1638,0967,-0728,0004,0026,0012,090.1638,021.6150,030.6174
353698235,-1628,0954,-0711,0009,0022,0019,089.3450,020.8585,030.5536
353704019,-1626,0944,-0711,0007,0020,0019,089.2076,020.6164,030.3496
353709764,-1626,0951,-0721,0014,0023,0020,089.5095,020.7315,030.1134
353715545,-1626,0935,-0724,0024,0019,0019,089.6422,020.9804,030.3570
353721360,-1593,0966,-0707,0029,0017,0022,090.1691,021.1299,029.8336
353727217,-1600,0963,-0720,0031,0016,0022,088.6314,020.7263,031.4693
353733075,-1581,0959,-0700,0029,0015,0021,089.4321,021.1486,030.9735
353738850,-1596,0975,-0729,0033,0013,0022,088.7168,020.6904,031.2739
353744642,-1607,0964,-0727,0032,0007,0025,089.4095,021.3934,031.4488
353750403,-1617,0967,-0733,0031,0008,0019,089.5194,021.1782,030.8913
353756171,-1603,0961,-0694,0027,0001,0018,089.6290,021.2680,030.8802
353761946,-1609,0942,-0707,0024,-0004,0016,088.3977,020.2430,030.9519
353767686,-1617,0947,-0724,0018,-0002,0016,089.5421,020.8333,030.2656
353773493,-1630,0939,-0753,0017,0001,0011,089.8645,021.1670,030.3697
353779288,-1639,0935,-0737,0018,0003,0007,091.0430,021.9073,029.8814
353785032,-1650,0933,-0739,0023,0011,0005,090.4385,021.2622,029.6783
353790814,-1643,0930,-0717,0024,0015,0005,090.6442,021.3066,029.4579
353796569,-1651,0936,-0690,0024,0016,0004,089.9236,020.7287,029.5160
353802344,-1642,0932,-0728,0027,0018,0007,088.8787,019.8794,029.5530
353808140,-1632,0941,-0719,0027,0015,0005,090.5313,021.2750,029.5806
353813936,-1630,0953,-0741,0028,0019,0007,089.7152,020.8370,030.0233
353819702,-1644,0955,-0731,0027,0019,0008,090.2839,021.5164,030.3537
353825475,-1644,0967,-0739,0020,0017,0006,089.8111,020.9713,030.1255
353831216,-1618,0968,-0700,0023,0018,0004,089.8390,021.2083,030.5040
353836968,-1628,0965,-0715,0019,0016,0006,088.4478,020.2513,030.9436
353842764,-1606,0964,-0727,0023,0012,0008,089.2675,020.7630,030.6142
353848530,-1609,0954,-0727,0025,0016,0006,089.6066,021.2846,031.0281
353854247,-1629,0955,-0689,0027,0013,0008,089.8211,021.2348,030.6131
353860053,-1628,0962,-0750,0028,0012,0006,088.4053,019.8759,030.3450
353865769,-1615,0965,-0735,0027,0008,0011,090.5633,021.8768,030.6113
353871602,-1600,0972,-0737,0034,0003,0008,089.6738,021.2580,030.8936
353877317,-1626,0981,-0717,0033,-0001,0012,089.6890,021.5195,031.3311
353883101,-1622,0980,-0725,0034,-0005,0014,088.7698,020.5728,031.0723
353888926,-1606,0973,-0727,0033,-0009,0017,089.1966,020.9860,031.1499
353894706,-1618,0975,-0728,0032,-0012,0016,089.3796,021.1861,031.2177
353900533,-1615,0975,-0746,0029,-0016,0019,089.3283,021.0517,031.0517
353906367,-1625,0953,-0715,0024,-0016,0020,089.9513,021.6486,031.1319
353912147,-1627,0942,-0711,0024,-0013,0021,089.3592,020.6597,030.2924
353917983,-1614,0946,-0727,0027,-0012,0020,089.5977,020.7183,030.0356
353923797,-1617,0927,-0740,0029,-0009,0023,090.0236,021.3169,030.4343
353929595,-1613,0932,-0726,0036,-0003,0025,090.9336,021.7049,029.7331
353935353,-1628,0934,-0749,0039,0000,0027,090.1471,021.2301,030.0655
353941044,-1645,0962,-0744,0042,0006,0027,090.9912,021.8257,029.8178
353946836,-1637,0933,-0750,0038,0012,0029,089.9529,021.2656,030.3897
353952653,-1633,0928,-0729,0040,0012,0031,091.0751,021.7730,029.5833
353958459,-1634,0936,-0726,0041,0014,0029,090.3008,021.1348,029.6173
353964300,-1636,0924,-0728,0040,0016,0024,090.0800,021.0813,029.8382
353970110,-1649,0919,-0731,0039,0016,0018,090.5174,021.1999,029.4006
353975990,-1640,0923,-0735,0034,0010,0010,090.6945,021.1651,029.0861
353981775,-1636,0935,-0744,0033,0008,0003,090.6914,021.3607,029.4083
353987464,-1616,0941,-0749,0031,0006,-0005,090.6702,021.5700,029.7837
353993196,-1596,0944,-0733,0030,0007,-0009,090.6796,021.8657,030.2644
353998913,-1610,0934,-0739,0034,0013,-0013,090.0548,021.5333,030.6375
354004788,-1613,0936,-0736,0037,0013,-0019,090.6365,021.6799,030.0165
354010628,-1638,0939,-0735,0036,0016,-0016,090.3741,021.5190,030.1315
354016503,-1615,0965,-0738,0039,0014,-0012,090.2967,021.2370,029.7649
354022325,-1639,0966,-0725,0040,0013,-0006,089.7037,021.4527,031.0274
354028070,-1640,0969,-0720,0035,0012,0002,089.3244,020.7934,030.4483
354033809,-1667,0962,-0728,0028,0010,0005,089.1219,020.6955,030.5899
354039556,-1655,0970,-0737,0026,0006,0010,089.6004,020.7209,029.9211
354045306,-1642,0964,-0754,0019,0000,0013,089.6447,021.0484,030.4306
354050984,-1645,0956,-0732,0013,0001,0017,090.3579,021.6604,030.4181
354056798,-1637,0940,-0726,0013,0002,0014,089.7415,020.9569,030.1313
354062595,-1638,0944,-0759,0011,0002,0016,090.0511,021.0433,029.8296
354068380,-1625,0942,-0739,0010,0006,0012,091.0437,021.9886,029.9751
354074094,-1617,0936,-0715,0015,0008,0011,090.2847,021.4090,030.1174
354079902,-1620,0924,-0739,0018,0015,0008,089.7029,020.8688,030.0557
354085679,-1600,0935,-0746,0017,0022,0006,090.9963,021.7354,029.6431
354091436,-1618,0927,-0744,0023,0023,0008,090.7377,021.9622,030.4020
354097206,-1631,0936,-0757,0028,0022,0005,090.9297,021.7266,029.7225
354103002,-1644,0938,-0741,0034,0017,0003,091.0960,021.9621,029.8649
354108791,-1612,0947,-0741,0038,0012,0001,090.4638,021.3068,029.6804
354114578,-1627,0951,-0723,0038,0007,0002,090.2947,021.6730,030.5468
354120284,-1624,0940,-0736,0034,0007,-0007,089.5976,020.9061,030.2684
354126025,-1629,0954,-0714,0029,0007,-0003,090.4375,021.4898,030.0270
354131740,-1605,0953,-0722,0028,0010,-0005,089.1843,020.6193,030.3896
354137472,-1627,0939,-0735,0025,0014,-0001,089.6664,021.2286,030.7431
354143229,-1633,0949,-0712,0028,0018,0002,090.4294,021.3919,029.8839
354149014,-1622,0941,-0729,0032,0019,0003,089.2397,020.5552,030.1982
354154814,-1612,0926,-0732,0028,0015,0009,090.2395,021.3560,030.1064
354160593,-1628,0940,-0752,0024,0014,0011,090.6044,021.5150,029.8397
354166401,-1629,0926,-0748,0020,0016,0013,090.8572,021.8481,030.0279
354172232,-1639,0937,-0748,0016,0010,0014,091.0660,021.7474,029.5553
354178063,-1641,0913,-0745,0013,0010,0016,090.7247,021.5923,029.7891
354183931,-1625,0936,-0756,0014,0015,0020,091.3527,021.6471,028.9856
354189708,-1628,0932,-0766,0018,0013,0015,090.9864,022.0036,030.0899
354195531,-1606,0944,-0763,0025,0022,0016,091.4927,022.2484,029.7483
354201367,-1598,0939,-0733,0026,0028,0013,090.9783,022.2846,030.5639
354207246,-1618,0946,-0766,0031,0036,0011,090.1646,021.4779,030.4203
354213125,-1634,0940,-0709,0029,0043,0008,091.2554,022.3685,030.2963
354218889,-1624,0946,-0713,0027,0039,0001,089.2824,020.3973,029.8596
354224670,-1632,0946,-0732,0029,0034,0002,089.5394,020.8439,030.2751
354230444,-1655,0939,-0703,0030,0025,-0004,090.1769,021.2678,030.0679
354236174,-1640,0935,-0722,0029,0021,-0007,089.2624,020.1645,029.5035
354241928,-1628,0921,-0736,0035,0012,-0011,090.1757,021.0442,029.7049
354247763,-1622,0943,-0740,0035,0008,-0014,090.9424,021.5520,029.4518
354253547,-1617,0969,-0744,0036,0010,-0011,090.3445,021.5239,030.2716
354259381,-1625,0946,-0759,0038,0014,-0010,089.8738,021.5448,031.0252
354265179,-1645,0960,-0744,0041,0018,-0007,091.0633,022.0501,030.0813
354270964,-1628,0967,-0726,0041,0021,-0007,090.0178,021.2551,030.2817
354276738,-1643,0986,-0759,0037,0023,-0005,089.3480,020.9463,030.7616
354282491,-1662,0967,-0757,0034,0028,-0001,090.0623,021.6972,030.9889
354288253,-1663,0964,-0776,0031,0034,0000,090.3986,021.4773,030.1053
354293943,-1655,0955,-0725,0026,0034,0000,091.0523,022.0429,030.0962
354299594,-1646,0949,-0734,0023,0029,0006,089.5458,020.6651,029.9757
354305356,-1642,0943,-0723,0020,0029,0004,090.1783,021.1902,029.9631
354311108,-1629,0931,-0713,0021,0029,0008,089.8779,020.8664,029.8566
354316899,-1610,0938,-0726,0017,0034,0012,089.8982,020.8057,029.7349
354322728,-1600,0916,-0722,0020,0031,0011,090.1806,021.3778,030.3126
354328562,-1580,0921,-0727,0019,0033,0017,090.6005,021.3947,029.7288
354334413,-1580,0923,-0720,0024,0038,0016,090.5903,021.7237,030.3040
354340223,-1572,0918,-0735,0027,0035,0016,090.3012,021.4634,030.2946
354346058,-1589,0920,-0728,0021,0027,0016,090.9738,022.0489,030.2860
354351938,-1618,0920,-0716,0022,0019,0012,090.6010,021.5775,030.0436
354357847,-1610,0925,-0714,0020,0011,0007,090.2129,020.9530,029.5526
354363593,-1606,0946,-0726,0020,0008,0007,090.0673,021.0431,029.9210
354369288,-1597,0944,-0731,0018,0004,0004,089.9409,021.3129,030.5811
354375012,-1633,0944,-0738,0021,-0003,0003,090.1856,021.5285,030.5845
354380717,-1632,0945,-0731,0022,-0010,0004,090.3874,021.3424,029.9601
354386461,-1618,0945,-0720,0024,-0013,0006,090.0874,021.1592,030.0838
354392254,-1612,0953,-0745,0025,-0013,0000,089.7370,020.9907,030.3120
354397917,-1629,0961,-0742,0025,-0017,0010,090.4287,021.7784,030.6250
354403709,-1615,0969,-0728,0024,-0013,0008,090.0221,021.3649,030.5226
354409492,-1621,0980,-0720,0026,-0006,0012,089.3835,021.0947,031.0271
354415251,-1626,0972,-0752,0027,-0004,0017,088.9185,020.7702,031.1737
354421026,-1628,0964,-0724,0026,0004,0020,090.2772,021.7708,030.8314
354426749,-1621,0961,-0726,0025,0008,0018,089.3566,020.8389,030.6094
354432515,-1645,0945,-0700,0023,0005,0021,089.6213,021.1014,030.6723
354438246,-1641,0940,-0734,0020,0003,0019,089.0937,020.1472,029.7829
354444016,-1664,0928,-0745,0019,0003,0018,090.5164,021.3641,029.8109
354449829,-1646,0935,-0744,0021,0001,0014,091.0236,021.3522,029.0624
354455629,-1644,0926,-0750,0020,0002,0013,090.7221,021.4679,029.6762
354461379,-1625,0916,-0744,0023,0001,0005,091.2173,021.7022,029.3499
354467092,-1617,0918,-0725,0019,-0004,0005,091.2164,021.7452,029.4147
354472833,-1631,0925,-0733,0018,-0001,0003,090.4897,021.2354,029.6042
354478546,-1624,0918,-0759,0013,-0003,-0004,090.6784,021.3616,029.5472
354484269,-1618,0930,-0751,0011,-0001,-0006,091.7526,022.2446,029.4621
354490001,-1619,0928,-0770,0009,0001,-0006,090.9928,021.8701,029.9436
354495653,-1627,0937,-0719,0010,0006,-0005,091.7874,022.4871,029.8009
354501347,-1627,0941,-0729,0010,0006,-0006,089.7088,020.7639,029.9492
354507036,-1607,0930,-0759,0005,0006,-0005,090.2202,021.2527,030.0517
354512653,-1640,0958,-0734,0000,0004,-0008,091.4784,022.3536,030.0547
354518204,-1631,0948,-0746,0000,0005,-0007,089.7977,021.0230,030.3061
354523820,-1653,0951,-0758,0001,0009,-0008,090.6171,021.6325,030.1467
354529476,-1638,0961,-0739,0010,0010,-0006,090.8531,021.6789,029.8843
354535183,-1638,0952,-0761,0013,0014,-0004,089.9365,021.2126,030.4568
354540978,-1641,0948,-0767,0021,0014,-0005,091.0387,021.9777,030.1189
354546815,-1650,0952,-0764,0022,0013,-0004,091.1967,022.0436,029.9944
354552603,-1650,0951,-0772,0023,0013,0002,090.9652,021.8320,029.9788
354558362,-1632,0946,-0732,0019,0010,0004,091.2786,022.0941,029.9526
354564127,-1625,0939,-0733,0019,0016,0003,090.0198,021.0923,030.1162
354569888,-1634,0935,-0753,0021,0018,0007,090.4209,021.3715,030.0067
354575653,-1616,0958,-0766,0022,0020,0006,091.1655,021.8637,029.7459
354581425,-1622,0946,-0751,0020,0021,0004,090.8788,022.2335,030.7931
354587168,-1588,0929,-0754,0025,0023,0001,090.7417,021.7489,030.1796
354592931,-1606,0936,-0745,0021,0023,-0001,091.3247,022.3643,030.3451
354598702,-1610,0921,-0720,0018,0025,0000,090.7428,021.7677,030.2154
354604354,-1616,0914,-0737,0015,0024,-0001,090.3841,021.1603,029.7222
354610112,-1612,0909,-0737,0011,0019,0001,091.2313,021.7263,029.4558
354615926,-1634,0907,-0749,0010,0018,0001,091.2507,021.7138,029.4111
354621698,-1630,0892,-0723,0009,0017,-0002,091.7299,021.8586,028.9760
354627447,-1631,0908,-0732,0010,0010,-0001,091.1731,021.1801,028.6481
354633193,-1634,0916,-0723,0013,0007,-0002,091.1076,021.4444,029.1702
354638932,-1645,0925,-0757,0014,0006,-0006,090.5705,021.0541,029.2830
354644638,-1644,0916,-0740,0019,0005,-0007,091.5738,021.9574,029.3507
354650397,-1655,0940,-0759,0029,0007,-0006,091.1098,021.4001,029.0876
354656125,-1648,0955,-0745,0033,0003,-0011,091.1540,021.7828,029.6467
354661928,-1631,0958,-0746,0032,0010,-0011,090.2674,021.3085,030.1407
354667795,-1650,0959,-0767,0034,0002,-0008,090.3350,021.5575,030.4639
354673484,-1641,0989,-0732,0029,0002,-0007,090.9810,021.9293,030.1258
354679216,-1629,0984,-0750,0026,-0004,-0002,088.9843,020.7880,031.1783
354684922,-1627,0986,-0750,0027,-0003,0008,089.9334,021.5914,031.1261
354690627,-1637,0979,-0744,0030,0003,0014,089.7722,021.5067,031.2269
354696388,-1622,0961,-0734,0032,0001,0022,089.7625,021.2842,030.8424
354702162,-1624,0948,-0739,0032,0005,0027,089.8867,021.2711,030.6231
354707961,-1609,0951,-0731,0028,0010,0029,090.3872,021.4828,030.2292
354713788,-1607,0960,-0749,0027,0012,0031,089.9442,021.3432,030.6509
354719627,-1627,0909,-0745,0024,0016,0030,090.3994,021.8866,030.8948
354725457,-1615,0908,-0723,0021,0015,0028,091.5970,021.7747,028.9470
354731301,-1613,0900,-0753,0019,0019,0030,090.6499,021.2521,029.4138
354737100,-1613,0912,-0761,0027,0015,0026,092.0870,022.3273,029.1257
354742927,-1614,0879,-0738,0034,0012,0021,091.7806,022.3314,029.5461
354748778,-1616,0886,-0713,0031,0011,0019,091.9741,021.8235,028.4530
354754651,-1638,0902,-0715,0030,0006,0016,090.8331,021.0636,028.7714
354760381,-1628,0911,-0713,0029,-0008,0011,090.5756,020.9005,028.8478
354766158,-1630,0915,-0720,0021,-0011,0008,090.2713,020.9114,029.2865
354771976,-1618,0935,-0712,0021,-0013,0006,090.4566,021.0828,029.3073
354777771,-1629,0938,-0746,0022,-0009,0002,089.5694,020.8138,030.1332
354783519,-1626,0946,-0707,0020,-0009,-0002,090.8209,021.7571,029.8991
354789233,-1637,0940,-0751,0020,-0014,-0004,089.0660,020.4378,030.2210
354794972,-1657,0946,-0733,0014,-0010,-0005,090.9987,021.8572,029.8097
354800767,-1660,0953,-0749,0019,-0001,-0004,089.9667,020.9053,029.7052
354806490,-1660,0954,-0753,0017,-0004,-0008,090.4562,021.4188,029.8698
354812250,-1643,0981,-0738,0020,-0002,-0008,090.5106,021.4710,029.8795
354817966,-1645,0966,-0760,0019,0004,-0008,089.3136,021.0426,030.9446
354823764,-1643,0975,-0746,0020,0007,-0007,090.5810,021.8080,030.3485
354829426,-1633,0950,-0772,0025,0003,-0002,089.7380,021.2793,030.7140
354835087,-1632,0962,-0721,0022,0000,0000,091.3155,022.3291,030.1247
354840601,-1637,0941,-0748,0019,0004,0003,089.1887,020.7149,030.5457
354846348,-1633,0933,-0746,0017,0008,0005,090.8641,021.7285,029.8023
354852097,-1617,0892,-0763,0020,0013,0011,090.7910,021.6245,029.7333
354857923,-1607,0895,-0756,0019,0011,0013,092.5809,022.5827,028.7449
354863782,-1609,0901,-0724,0022,0015,0013,091.9508,022.3084,029.1727
354869602,-1610,0906,-0745,0022,0017,0014,090.7544,021.3288,029.2588
354875467,-1616,0918,-0756,0029,0013,0011,091.5173,022.0702,029.3850
354881316,-1624,0926,-0749,0033,0007,0002,091.4253,022.1478,029.6301
354887029,-1619,0934,-0702,0031,-0001,-0001,090.9670,021.7905,029.6929
354892747,-1616,0936,-0735,0029,-0003,-0005,089.1522,020.4247,030.0097
354898472,-1637,0957,-0761,0030,-0006,-0008,090.5213,021.6381,030.0804
354904161,-1632,0946,-0758,0022,-0010,-0008,090.6357,021.8869,030.3283
354909919,-1641,0941,-0769,0024,-0007,-0014,090.8169,021.8875,030.0575
354915743,-1654,0941,-0752,0023,-0004,-0014,091.2975,022.1515,029.7882
354921542,-1652,0947,-0741,0024,-0003,-0016,090.6587,021.4848,029.6054
354927320,-1638,0944,-0769,0021,-0003,-0013,090.2011,021.2300,029.8408
354933089,-1651,0949,-0750,0029,0003,-0013,091.2939,022.2579,029.9599
354938842,-1645,0947,-0749,0034,0005,-0009,090.3816,021.4092,029.8725
354944581,-1648,0959,-0757,0041,0007,-0010,090.5084,021.5531,029.9240