Time Stamp,Accel x,Accel y,Accel z,Gyro x,Gyro y,Gyro z,Yaw (Deg),Pitch (Deg),Roll (Deg)
462231120,-1188,0130,-1602,0022,0005,0010,089.3465,051.8352,006.1151
462236854,-1202,0126,-1583,0027,0004,0014,089.4497,053.5024,006.2662
462242611,-1190,0113,-1576,0026,-0003,0014,089.4946,052.5202,005.9487
462248350,-1199,0124,-1581,0028,-0017,0013,089.7913,052.8403,005.3623
462254148,-1211,0118,-1567,0030,-0013,0013,089.4925,052.6419,005.9752
462259948,-1217,0130,-1583,0030,-0011,0012,089.6556,052.0999,005.5104
462265731,-1219,0104,-1600,0029,-0012,0018,089.3557,052.3074,006.1898
462271540,-1243,0107,-1605,0027,-0012,0022,090.0832,052.6283,004.6720
462277361,-1237,0098,-1600,0026,-0013,0023,089.8977,052.0607,004.9570
462283169,-1250,0090,-1587,0024,-0011,0026,090.1334,052.2137,004.4716
462288922,-1277,0101,-1590,0021,-0004,0026,090.2716,051.6254,004.0793
462294686,-1260,0086,-1588,0018,-0003,0025,089.9734,051.0749,004.5840
462300391,-1260,0088,-1575,0018,0002,0023,090.3827,051.5527,003.8242
462306140,-1264,0081,-1571,0013,0003,0028,090.2517,051.2272,004.0303
462311856,-1253,0086,-1583,0014,0001,0023,090.4402,051.1017,003.6285
462317588,-1242,0093,-1592,0008,0000,0018,090.2997,051.6289,003.9790
462323172,-1237,0102,-1585,0006,0002,0012,090.1601,051.9915,004.3245
462328837,-1227,0092,-1606,0003,0005,0005,089.9465,051.9225,004.7705
462334445,-1225,0112,-1600,-0003,0004,-0012,090.2617,052.6064,004.2364
462340143,-1219,0131,-1615,-0005,0006,-0022,089.7465,052.4191,005.3512
462345842,-1206,0131,-1617,-0005,0006,-0031,089.4050,052.8377,006.2330
462351526,-1218,0131,-1603,-0011,0005,-0042,089.4826,053.1514,006.1923
462357306,-1202,0148,-1541,-0009,0005,-0055,089.4829,052.5303,006.1224
462362954,-1219,0145,-1593,-0007,0005,-0061,088.9967,051.7901,007.0565
462368637,-1216,0148,-1600,-0009,0006,-0065,089.2626,052.4553,006.7321
462374295,-1225,0148,-1592,-0008,0006,-0064,089.2099,052.5686,006.9519
462379988,-1229,0153,-1587,-0004,0007,-0061,089.2367,052.1718,006.8670
462385668,-1213,0122,-1586,-0004,0005,-0055,089.1332,052.0069,007.1134
462391356,-1211,0140,-1600,0002,0011,-0047,089.9475,052.5087,005.5355
462397107,-1214,0131,-1576,0002,0011,-0035,089.4376,052.7179,006.7430
462402873,-1211,0123,-1608,0003,0007,-0016,089.6989,052.1599,006.0802
462408545,-1208,0123,-1585,0004,0007,-0003,089.9314,052.9637,005.7667
462414142,-1205,0139,-1601,0007,0010,0013,089.8612,052.4947,005.8286
462419854,-1218,0140,-1593,0002,0007,0027,089.5050,052.8949,006.7055
462425535,-1195,0146,-1599,0002,0011,0037,089.5109,052.3530,006.5602
462431315,-1218,0138,-1589,-0001,0007,0045,089.3695,053.1268,007.0602
462436961,-1224,0155,-1564,-0004,0005,0050,089.5572,052.2552,006.4249
462442645,-1230,0169,-1578,-0006,0005,0049,089.0541,051.6623,007.3391
462448322,-1212,0168,-1583,-0003,0006,0042,088.8036,051.8166,007.9136
462453988,-1201,0157,-1575,-0004,0010,0036,088.8818,052.3587,007.9132
462459741,-1193,0172,-1573,-0001,0006,0026,089.1313,052.4424,007.4067
462465409,-1213,0174,-1563,0000,0001,0022,088.7438,052.5395,008.3034
462470976,-1219,0154,-1542,0005,0000,0014,088.7234,051.8413,008.1616
462476565,-1199,0145,-1571,0009,-0001,0006,089.1663,051.4170,007.1419
462482179,-1201,0148,-1557,0013,-0008,0002,089.4368,052.5422,006.8709
462487900,-1220,0141,-1575,0019,-0008,0004,089.3137,052.0984,007.0382
462493603,-1213,0151,-1594,0025,-0009,0006,089.5493,052.0371,006.5292
462499288,-1193,0129,-1553,0030,-0012,0007,089.3160,052.5708,007.1689
462504994,-1191,0136,-1579,0038,-0017,0012,089.7781,052.2743,006.0892
462510803,-1211,0126,-1569,0038,-0022,0016,089.6152,052.8504,006.5664
462516617,-1221,0127,-1587,0044,-0020,0016,089.8596,052.0870,005.8497
462522415,-1224,0122,-1614,0046,-0016,0017,089.8288,052.2938,005.9420
462528232,-1219,0159,-1539,0048,-0015,0020,089.9987,052.7344,005.6440
462534007,-1240,0167,-1599,0052,-0018,0017,088.9118,051.2471,007.5732
462539798,-1219,0182,-1587,0051,-0014,0016,088.9672,052.0504,007.6719
462545603,-1214,0182,-1591,0051,-0008,0012,088.5500,052.1743,008.6064
462551335,-1221,0183,-1599,0046,-0002,0005,088.6303,052.3649,008.5005
462557043,-1228,0183,-1611,0048,0005,-0001,088.6254,052.3181,008.5100
462562726,-1213,0163,-1592,0050,0001,0001,088.6642,052.3810,008.4546
462568357,-1224,0158,-1602,0053,0003,0001,089.0947,052.4505,007.5369
462574038,-1242,0139,-1591,0058,0000,0004,089.1867,052.3766,007.3128
462579624,-1225,0125,-1587,0063,0000,0016,089.5966,051.7921,006.2784
462585247,-1241,0109,-1586,0067,0001,0029,089.8746,052.2359,005.7551
462591034,-1229,0095,-1616,0069,0000,0039,090.2171,051.7895,004.9034
462596634,-1206,0086,-1588,0067,0003,0053,090.5213,052.7552,004.3603
462602365,-1233,0093,-1613,0066,0004,0062,090.6339,052.7049,004.0382
462608103,-1224,0109,-1630,0064,0003,0071,090.4412,052.4989,004.3510
462613846,-1234,0099,-1591,0058,0001,0075,090.0684,053.0443,005.1931
462619576,-1221,0104,-1591,0053,0003,0077,090.2624,051.9900,004.5228
462625323,-1232,0103,-1577,0053,0000,0074,090.0775,052.4494,004.9307
462630982,-1218,0121,-1586,0047,0004,0071,090.0753,051.8326,004.7723
462636772,-1215,0104,-1576,0042,0008,0062,089.6063,052.4186,005.8328
462642544,-1220,0089,-1577,0038,0011,0051,090.0704,052.2445,004.7704
462648325,-1214,0102,-1591,0036,0011,0043,090.3713,052.1903,004.0906
462654140,-1238,0096,-1612,0032,0007,0033,090.0019,052.6131,004.9262
462659851,-1221,0083,-1562,0030,0009,0022,090.2303,052.3629,004.3772
462665564,-1226,0082,-1578,0029,0012,0014,090.4482,051.8696,003.8340
462671336,-1207,0077,-1580,0032,0014,0009,090.4660,052.1264,003.8206
462677077,-1212,0064,-1579,0024,0014,0006,090.5861,052.6243,003.6251
462682772,-1223,0062,-1575,0026,0009,0004,090.8871,052.4272,002.9454
462688490,-1209,0082,-1587,0024,0009,-0002,090.8929,052.0921,002.8914
462694169,-1219,0093,-1565,0019,0007,-0006,090.4042,052.7044,004.0124
462699864,-1206,0098,-1561,0015,0009,-0003,090.1704,051.9240,004.3990
462705508,-1209,0101,-1579,0011,0014,-0007,090.0743,052.2438,004.6678
462711281,-1203,0111,-1590,0007,0012,-0012,090.0467,052.4911,004.7906
462717016,-1201,0102,-1586,0005,0009,-0012,089.8312,052.8075,005.3428
462722747,-1203,0100,-1579,0006,0009,-0013,090.0896,052.7557,004.7901
462728396,-1194,0123,-1581,0005,0006,-0008,090.1026,052.5797,004.7500
462734018,-1212,0091,-1579,0007,0007,-0007,089.5620,052.8095,005.9989
462739609,-1196,0116,-1582,0008,0003,-0005,090.3946,052.3650,004.1249
462745239,-1192,0094,-1593,0006,0004,-0001,089.7132,052.8188,005.6985
462750863,-1195,0098,-1592,0003,0005,0001,090.3393,053.1341,004.3797
462756494,-1207,0107,-1596,0003,0001,0005,090.1748,052.9935,004.7313
462762152,-1213,0110,-1578,0002,-0002,0005,089.9862,052.7584,005.1170
462767804,-1218,0101,-1582,0003,-0005,0010,089.9112,052.2788,005.1987
462773480,-1242,0113,-1558,0003,-0005,0009,090.1567,052.3060,004.6883
462779121,-1242,0115,-1618,0004,0000,0010,089.7877,051.2070,005.2627
462784730,-1232,0122,-1592,0005,-0002,0007,089.8921,052.4888,005.3008
462790372,-1241,0120,-1573,0010,0002,0009,089.6707,052.0807,005.7018
462796033,-1273,0117,-1593,0008,0000,0004,089.7181,051.5317,005.5063
462801551,-1266,0119,-1576,0010,0002,0005,089.8275,051.2250,005.2361
462807237,-1273,0121,-1604,0012,0006,0004,089.7428,051.0814,005.3891
462812889,-1263,0126,-1570,0016,0012,0004,089.7620,051.4712,005.4354
462818720,-1253,0124,-1583,0015,0018,0004,089.5685,050.9813,005.7383
462824453,-1233,0135,-1559,0016,0025,0005,089.6818,051.5754,005.6421
462830216,-1229,0119,-1582,0015,0027,0004,089.3417,051.4847,006.3351
462835949,-1226,0119,-1565,0019,0025,0000,089.8566,052.1103,005.4085
462841574,-1233,0122,-1583,0016,0024,0001,089.7573,051.7624,005.5594
462847304,-1219,0125,-1567,0020,0025,0000,089.7342,051.9783,005.6624
462852879,-1206,0129,-1575,0022,0026,-0003,089.6415,051.9768,005.8701
462858613,-1214,0127,-1577,0025,0022,-0008,089.5765,052.4573,006.1293
462864357,-1184,0137,-1578,0026,0020,-0015,089.6511,052.2328,005.9402
462870133,-1195,0137,-1570,0025,0012,-0016,089.4095,053.0196,006.6726
462875907,-1205,0149,-1576,0025,0007,-0019,089.4358,052.4852,006.5131
462881705,-1206,0136,-1592,0026,0002,-0019,089.1601,052.3682,007.1106
462887468,-1219,0128,-1564,0022,0002,-0013,089.5722,052.7212,006.3197
462893252,-1224,0141,-1575,0028,0000,-0010,089.6598,051.8055,005.9437
462898846,-1219,0132,-1553,0026,0005,0001,089.3505,051.9780,006.6420
462904529,-1230,0120,-1574,0028,0001,0009,089.5625,051.6748,006.1325
462910197,-1224,0134,-1580,0033,0002,0018,089.8860,051.8811,005.4945
462915949,-1243,0128,-1561,0034,0004,0028,089.4879,052.0927,006.3636
462921698,-1232,0121,-1553,0033,0006,0037,089.6491,051.2099,005.8186
462927428,-1209,0126,-1549,0029,0008,0038,089.7780,051.4654,005.5916
462933167,-1228,0126,-1577,0032,0013,0036,089.6209,051.9163,005.9922
462938997,-1228,0132,-1556,0029,0010,0036,089.6866,051.9482,005.8441
462944810,-1230,0134,-1561,0032,0008,0028,089.4740,051.5024,006.1771
462950579,-1209,0126,-1593,0029,0007,0024,089.4587,051.6079,006.2260
462956310,-1208,0122,-1589,0030,0007,0020,089.7294,052.8123,005.9063
462962017,-1213,0138,-1593,0032,0005,0015,089.7781,052.5843,005.7451
462967759,-1206,0146,-1574,0034,-0003,0015,089.3798,052.5186,006.5936
462973480,-1214,0126,-1594,0034,-0005,0014,089.1982,052.3081,006.9358
462979245,-1219,0127,-1550,0035,-0003,0017,089.7634,052.5875,005.7683
462984976,-1202,0115,-1593,0038,-0007,0016,089.5670,051.5683,005.9589
462990747,-1226,0125,-1571,0035,-0005,0025,089.9713,053.0396,005.3796
462996411,-1211,0123,-1542,0036,-0003,0028,089.6124,051.7473,005.8710
463002151,-1223,0137,-1593,0036,-0006,0027,089.6382,051.7005,005.7931
463007930,-1220,0118,-1579,0038,-0001,0028,089.3775,052.3998,006.4853
463013673,-1217,0132,-1600,0036,-0002,0033,089.8543,052.1395,005.3894
463019457,-1215,0129,-1588,0042,0001,0031,089.4652,052.6415,006.3130
463025221,-1215,0127,-1559,0038,-0004,0029,089.5648,052.3840,006.0228
463030978,-1213,0125,-1577,0043,-0004,0032,089.5313,051.8569,005.9592
463036697,-1221,0115,-1595,0037,-0001,0028,089.6135,052.3383,005.8729
463042459,-1233,0127,-1581,0041,-0004,0025,089.8795,052.4497,005.3046
463048189,-1239,0122,-1581,0042,-0005,0023,089.5061,051.8203,005.9525
463053930,-1245,0121,-1606,0040,-0005,0024,089.6757,051.7659,005.5741
463059664,-1238,0107,-1581,0039,-0001,0024,089.7161,052.1198,005.5453
463065419,-1227,0113,-1580,0039,-0001,0027,090.0074,051.7856,004.8533
463071185,-1250,0119,-1583,0036,0001,0026,089.7997,052.0842,005.3248
463076922,-1240,0117,-1585,0040,-0001,0026,089.6769,051.5050,005.4503
463082665,-1217,0117,-1577,0040,0002,0027,089.7382,051.8809,005.3797
463088400,-1207,0100,-1568,0036,0005,0019,089.7092,052.2568,005.5046
463094125,-1236,0113,-1575,0029,0005,0016,090.1123,052.3183,004.6482
463099909,-1215,0079,-1620,0028,0000,0019,089.7376,051.6706,005.3083
463105516,-1216,0115,-1605,0028,0003,0017,090.6794,053.2327,003.5228
463111244,-1225,0103,-1610,0029,-0001,0015,089.6721,052.6526,005.6433
463116982,-1203,0101,-1605,0023,0001,0013,090.1031,052.6264,004.6969
463122741,-1221,0104,-1629,0024,0001,0009,090.0865,053.1076,004.8137
463128422,-1220,0099,-1628,0025,0000,0007,090.0536,053.0333,004.8722
463133969,-1194,0114,-1562,0026,-0002,0005,090.1703,053.0568,004.6149
463139687,-1230,0120,-1601,0025,0001,0003,089.7048,052.4231,005.5211
463145351,-1215,0131,-1591,0027,0006,0001,089.6743,052.3192,005.5728
463151062,-1217,0140,-1581,0032,0005,-0002,089.3922,052.4882,006.2264
463156768,-1244,0159,-1571,0032,0005,-0007,089.1952,052.1889,006.5973
463162472,-1234,0171,-1587,0033,0008,-0008,088.7338,051.2957,007.3572
463168166,-1223,0162,-1602,0032,0014,-0009,088.5472,051.9436,007.9510
463173940,-1248,0162,-1581,0032,0017,-0007,088.8473,052.4670,007.4748
463179700,-1237,0159,-1587,0037,0019,-0005,088.7630,051.3536,007.3743
463185477,-1215,0136,-1578,0037,0019,0000,088.8735,051.9103,007.3068
463191144,-1226,0153,-1590,0038,0022,0008,089.4098,052.2756,006.2588
463196900,-1206,0118,-1602,0041,0022,0017,088.9397,052.1346,007.2295
463202682,-1213,0138,-1564,0046,0022,0022,089.9017,053.0172,005.3154
463208505,-1185,0118,-1569,0043,0016,0032,089.1711,051.8984,006.6345
463214323,-1191,0123,-1612,0041,0017,0036,089.7570,052.9100,005.5718
463220137,-1196,0128,-1567,0037,0012,0040,089.6282,053.4735,005.9553
463225917,-1211,0110,-1566,0039,0010,0036,089.4342,052.3853,006.1265
463231705,-1202,0102,-1556,0037,0010,0034,089.8929,052.1405,005.0764
463237500,-1215,0105,-1559,0035,0007,0029,090.0074,052.2180,004.8280
463243248,-1205,0107,-1555,0036,0005,0023,089.9177,051.9323,004.9502
463248997,-1215,0111,-1576,0034,0007,0020,089.8648,052.1324,005.0855
463254745,-1233,0123,-1556,0037,0008,0018,089.8009,052.2677,005.2349
463260524,-1219,0095,-1538,0032,0007,0015,089.4638,051.3606,005.7525
463266229,-1220,0111,-1570,0031,0009,0015,090.1669,051.5240,004.3471
463271992,-1219,0109,-1568,0028,0011,0016,089.7418,052.1056,005.3228
463277802,-1223,0111,-1545,0028,0010,0015,089.8470,052.0123,005.0792
463283615,-1203,0108,-1564,0024,0010,0015,089.7386,051.4623,005.1996
463289383,-1200,0100,-1561,0028,0007,0016,089.8589,052.4217,005.1214
463295097,-1212,0119,-1559,0025,0008,0015,090.0319,052.3425,004.7314
463300799,-1204,0112,-1556,0026,0007,0011,089.5439,051.9655,005.6937
463306617,-1224,0116,-1558,0026,0007,0012,089.7635,052.1646,005.2704
463312346,-1195,0103,-1564,0027,0003,0005,089.6447,051.6643,005.4261
463318064,-1214,0113,-1569,0024,0004,0002,089.9923,052.5967,004.8702
463323734,-1228,0117,-1576,0027,0005,-0001,089.7235,052.0961,005.3591
463329434,-1223,0121,-1573,0025,0005,-0001,089.6692,051.9233,005.4487
463335105,-1219,0109,-1529,0022,0004,-0007,089.5788,052.0035,005.6701
463340798,-1204,0115,-1576,0025,0008,-0002,089.8069,051.2786,005.0701
463346444,-1227,0111,-1556,0023,0011,-0002,089.7305,052.6380,005.4991
463352226,-1232,0104,-1582,0026,0009,0005,089.8054,051.5043,005.1277
463357919,-1208,0098,-1587,0026,0007,0009,090.0197,052.0542,004.7808
463363609,-1217,0106,-1579,0024,0002,0013,090.1447,052.7048,004.6185
463369357,-1199,0102,-1557,0027,0002,0019,089.9089,052.2055,005.0286
463375113,-1195,0111,-1607,0029,0000,0027,089.9937,052.3031,004.8499
463380769,-1211,0123,-1624,0033,-0006,0024,089.8397,053.3673,005.3714
463386479,-1218,0101,-1580,0032,-0004,0021,089.6000,053.1117,005.8509
463392240,-1208,0112,-1589,0032,-0013,0022,090.0891,052.1482,004.5895
463398068,-1218,0133,-1598,0032,-0011,0017,089.7470,052.7096,005.4162
463403912,-1233,0134,-1582,0036,-0008,0015,089.2917,052.4805,006.3550
463409668,-1239,0146,-1586,0037,-0009,0015,089.3037,051.8136,006.1758
463415390,-1243,0126,-1617,0035,-0009,0014,089.0096,051.7996,006.7884
463421121,-1246,0118,-1614,0037,-0008,0013,089.6025,052.3615,005.6549
463426896,-1233,0130,-1579,0039,0002,0017,089.7130,052.1823,005.3733
463432638,-1230,0121,-1591,0040,-0003,0023,089.3226,051.8072,006.1049
463438365,-1231,0112,-1578,0039,0001,0023,089.6217,052.2014,005.5463
463444140,-1233,0105,-1589,0040,0003,0028,089.7740,051.8807,005.1456
463449833,-1227,0119,-1603,0045,0005,0032,089.9333,052.1124,004.8281
463455581,-1212,0102,-1608,0042,0006,0035,089.5740,052.4794,005.6405
463461315,-1227,0097,-1603,0046,0005,0039,090.0337,052.9500,004.6914
463467055,-1231,0103,-1599,0041,0004,0037,090.0669,052.4153,004.4994
463472841,-1213,0121,-1592,0041,0002,0035,089.8922,052.2910,004.8242
463478576,-1226,0090,-1606,0041,-0003,0032,089.4445,052.5887,005.8250
463484281,-1187,0113,-1605,0039,0001,0027,090.2787,052.5572,003.9903
463490042,-1220,0087,-1612,0037,0000,0024,089.5901,053.5162,005.6740
463495632,-1204,0105,-1616,0034,-0002,0015,090.3062,052.7335,003.9233
463501352,-1201,0088,-1578,0030,0002,0010,089.7995,053.2665,005.1294
463507059,-1218,0111,-1639,0028,0004,0005,090.2193,052.5782,004.0853
463512793,-1227,0090,-1594,0027,0002,0000,089.7118,053.3496,005.3462
463518374,-1219,0088,-1607,0019,0007,0003,090.2023,052.2337,004.0849
463524040,-1233,0081,-1592,0015,0005,-0001,090.2221,052.8054,004.1346
463529687,-1238,0107,-1586,0013,0010,-0002,090.3741,052.1076,003.7170
463535435,-1234,0090,-1588,0014,0010,-0003,089.6978,051.8908,005.1088
463541101,-1257,0096,-1582,0014,0013,0001,090.2232,052.0966,004.0528
463546816,-1246,0104,-1586,0017,0018,0003,090.0003,051.3692,004.4061
463552597,-1249,0099,-1616,0017,0017,0003,089.8336,051.8047,004.8270
463558340,-1228,0093,-1595,0016,0017,0005,090.0311,052.2631,004.4966
463564079,-1231,0118,-1555,0011,0013,0006,090.1260,052.3340,004.3127
463569836,-1243,0119,-1571,0012,0015,0008,089.4234,051.4036,005.6174
463575553,-1219,0129,-1566,0009,0018,0007,089.5240,051.5366,005.4541
463581286,-1229,0139,-1567,0011,0018,0007,089.2556,052.0004,006.1247
463587048,-1238,0133,-1600,0008,0020,0004,089.0493,051.6747,006.5054
463592710,-1206,0121,-1564,0008,0020,0003,089.3096,052.1620,006.0919
463598356,-1227,0133,-1531,0010,0021,-0001,089.5113,052.2314,005.6985
463604083,-1212,0154,-1581,0013,0023,0002,089.1413,051.0419,006.2261
463609819,-1234,0130,-1555,0013,0024,0001,088.7592,052.5047,007.4103
463615553,-1213,0115,-1587,0018,0026,0002,089.3689,051.2857,005.8562
463621334,-1199,0132,-1566,0018,0019,0005,089.7544,052.6866,005.3403
463627119,-1209,0122,-1558,0018,0020,0007,089.2438,052.3602,006.3915
463632846,-1204,0120,-1568,0017,0018,0011,089.5360,052.0157,005.7034
463638662,-1216,0122,-1594,0019,0015,0013,089.5788,052.3858,005.6941
463644451,-1201,0128,-1546,0023,0011,0016,089.5740,052.5408,005.7375
463650282,-1212,0126,-1579,0028,0005,0017,089.3367,051.9448,006.1162
463656032,-1227,0123,-1519,0027,-0001,0013,089.4815,052.3918,005.9076
463661783,-1219,0130,-1569,0031,-0001,0006,089.4224,050.8317,005.7078
463667532,-1232,0142,-1576,0035,-0002,0006,089.3527,052.1620,006.1369
463673196,-1232,0144,-1548,0032,0000,0006,089.0802,051.7479,006.6233
463678764,-1229,0133,-1550,0034,0001,0008,089.0062,051.2517,006.6640
463684445,-1219,0123,-1571,0035,0001,0007,089.2991,051.4386,006.1162
463690094,-1208,0130,-1539,0041,0003,0006,089.5653,052.1195,005.7069
463695754,-1217,0126,-1576,0038,0004,0014,089.3008,051.6795,006.1634
463701527,-1214,0128,-1576,0036,0004,0017,089.4973,052.2462,005.8684
463707292,-1219,0126,-1586,0037,0007,0025,089.4111,052.2342,006.0391
463713057,-1203,0128,-1557,0034,0004,0031,089.4854,052.3122,005.8832
463718821,-1217,0119,-1544,0035,0006,0033,089.3605,052.1316,006.0961
463724541,-1205,0107,-1589,0038,-0001,0032,089.5617,051.5700,005.5417
463730294,-1204,0107,-1595,0033,-0001,0030,089.9261,052.8906,005.0010
463735975,-1207,0132,-1585,0035,-0005,0025,089.8735,052.8284,005.0883
463741697,-1192,0126,-1582,0035,-0004,0020,089.2416,052.4979,006.3938
463747409,-1204,0113,-1596,0033,-0008,0012,089.4669,052.8815,005.9854
463753143,-1217,0111,-1613,0033,-0010,0008,089.7878,052.8325,005.2648
463758893,-1207,0119,-1583,0031,-0011,0008,089.8178,052.8423,005.1984
463764659,-1225,0126,-1593,0031,-0010,0007,089.5634,052.4881,005.6846
463770406,-1223,0119,-1587,0030,-0006,0007,089.4456,052.2575,005.8934
463776077,-1228,0128,-1605,0030,-0006,0009,089.6244,052.2395,005.5095
463781730,-1231,0138,-1585,0026,-0003,0014,089.4150,052.4444,006.0028
463787515,-1242,0136,-1589,0025,0000,0017,089.1492,051.9181,006.4544
463793139,-1245,0122,-1605,0020,0006,0017,089.2470,051.8061,006.2306
463798840,-1257,0141,-1593,0024,0010,0017,089.6143,052.0945,005.5214
463804603,-1233,0118,-1568,0019,0012,0020,089.0741,051.4769,006.5164
463810373,-1257,0126,-1603,0022,0017,0020,089.6858,051.7245,005.3105
463816137,-1233,0127,-1594,0027,0011,0016,089.4630,051.7600,005.7782
463821967,-1239,0124,-1575,0026,0017,0016,089.4492,052.1887,005.8989
463827811,-1241,0136,-1605,0030,0018,0013,089.4921,051.5879,005.6849
463833600,-1233,0111,-1590,0029,0018,0012,089.2467,052.1993,006.3356
463839432,-1221,0130,-1589,0029,0017,0014,089.8838,052.0774,004.9581
463845278,-1213,0139,-1588,0030,0015,0019,089.2923,052.3404,006.2664
463851064,-1211,0147,-1588,0034,0015,0022,089.1589,052.4601,006.5795
463856837,-1191,0130,-1587,0031,0012,0021,088.9787,052.4675,006.9743
463862640,-1211,0132,-1585,0037,0010,0027,089.4209,053.0165,006.1194
463868432,-1197,0116,-1603,0033,0009,0029,089.2957,052.3673,006.2384
463874187,-1193,0123,-1567,0032,0008,0028,089.7420,053.2358,005.4255
463879939,-1211,0117,-1567,0036,0009,0031,089.4368,052.5021,005.9327
463885686,-1188,0113,-1578,0035,0008,0030,089.6093,052.1309,005.4720
463891397,-1209,0124,-1594,0032,0002,0029,089.6987,052.9825,005.4320
463897164,-1202,0097,-1586,0038,0004,0033,089.4356,052.6255,005.9194
463902873,-1211,0128,-1600,0035,0002,0024,090.1158,052.7617,004.4431
463908622,-1205,0105,-1570,0034,0001,0020,089.2786,052.7117,006.2597
463914338,-1213,0107,-1585,0036,-0002,0019,089.8952,052.3447,004.8389
463920121,-1221,0120,-1600,0035,-0003,0013,089.7962,052.4763,005.0673
463925857,-1199,0106,-1588,0033,0001,0012,089.5134,052.5177,005.6840
463931605,-1216,0107,-1595,0038,0003,0013,089.8744,052.8772,004.9562
463937368,-1218,0121,-1588,0036,0005,0008,089.8085,052.5229,005.0316
463943043,-1231,0102,-1590,0030,0005,0010,089.4582,052.3509,005.7534
463948725,-1207,0100,-1582,0032,0004,0009,089.9776,052.1268,004.6041
463954376,-1212,0115,-1587,0028,0003,0012,089.9450,052.6103,004.7506
463960110,-1228,0126,-1581,0030,0003,0014,089.5793,052.4853,005.5155
463965819,-1221,0124,-1543,0028,0007,0017,089.3449,051.9500,005.9040
463971574,-1217,0128,-1607,0034,0004,0019,089.3490,051.4523,005.7868
463977344,-1233,0122,-1563,0028,0004,0019,089.3750,052.9018,006.0404
463983082,-1228,0126,-1562,0030,0005,0019,089.4332,051.4283,005.6041
463988831,-1224,0112,-1588,0027,0006,0019,089.3196,051.7100,005.8952
463994606,-1217,0123,-1603,0024,0011,0015,089.7460,052.3424,005.1244
464000363,-1217,0105,-1568,0027,0013,0014,089.4364,052.6965,005.8660
464006181,-1245,0107,-1603,0027,0014,0012,089.8679,051.9945,004.8061
464011968,-1223,0113,-1559,0025,0011,0010,089.8169,052.0686,004.9262
464017732,-1216,0110,-1587,0028,0012,0013,089.5968,051.7284,005.3211
464023544,-1196,0105,-1616,0029,0011,0011,089.7547,052.5418,005.1404
464029387,-1203,0101,-1573,0025,0016,0010,089.9021,053.5329,004.9953
464035146,-1213,0126,-1571,0022,0010,0012,089.9064,052.3755,004.7794
464040917,-1207,0108,-1580,0026,0010,0008,089.2779,052.1481,006.0806
464046638,-1192,0113,-1611,0023,0004,0005,089.8314,052.5544,004.9816
464052330,-1201,0099,-1595,0027,0005,0007,089.6908,053.4917,005.4756
464058020,-1205,0107,-1592,0026,0001,0010,090.0215,052.8470,004.6128
464063747,-1227,0110,-1571,0024,-0001,0009,089.7739,052.7499,005.1394
464069467,-1230,0123,-1589,0029,-0005,0009,089.6998,051.7789,005.1170
464075147,-1232,0130,-1601,0029,-0004,0010,089.4167,052.1553,005.7863
464080869,-1250,0124,-1595,0028,-0002,0011,089.3059,052.2741,006.0523
464086574,-1236,0123,-1565,0033,-0002,0010,089.4583,051.7115,005.6149
464092293,-1228,0133,-1578,0028,0009,0010,089.4065,051.5370,005.6903
464098023,-1227,0128,-1576,0023,0004,0010,089.1872,052.0025,006.2551
464103759,-1216,0105,-1579,0024,0008,0012,089.3462,051.9343,005.9125
464109490,-1212,0116,-1582,0022,0016,0016,089.9102,052.3466,004.7981
464115332,-1203,0111,-1580,0022,0013,0014,089.5538,052.4259,005.5789
464121163,-1221,0112,-1586,0024,0013,0014,089.7340,052.6205,005.2274
464126970,-1204,0112,-1614,0023,0013,0018,089.6904,052.2393,005.2467
464132799,-1217,0108,-1563,0024,0010,0016,089.7459,053.3090,005.3284
464138583,-1202,0094,-1588,0030,0005,0018,089.7463,051.8284,005.0424
464144275,-1229,0099,-1589,0027,0004,0012,090.1363,052.9198,004.3896
464150016,-1227,0107,-1587,0027,0000,0010,089.9587,052.0853,004.6315
464155656,-1223,0104,-1569,0030,-0001,0012,089.7790,052.1898,005.0247
464161360,-1225,0107,-1587,0028,0000,0010,089.8452,051.9286,004.8375
464166991,-1243,0124,-1576,0025,-0002,0007,089.7927,052.2596,005.0090
464172652,-1236,0132,-1586,0022,0000,0006,089.3592,051.5125,005.7761
464178246,-1204,0107,-1558,0024,-0001,0006,089.2385,051.9502,006.1306
464183908,-1200,0102,-1587,0021,0003,0005,089.8092,052.2090,004.9854
464189595,-1237,0117,-1578,0022,0003,0003,089.9343,052.8776,004.8394
464195289,-1202,0112,-1596,0022,0003,0003,089.5349,051.6427,005.4679
464200962,-1214,0124,-1557,0019,0000,0007,089.7457,053.0734,005.3021
464206508,-1230,0101,-1581,0023,0004,0005,089.3741,051.8340,005.8622
464212180,-1220,0100,-1568,0023,0006,0010,090.0265,052.0433,004.5386
464217849,-1232,0108,-1601,0024,0007,0012,089.9443,052.0146,004.7033
464223568,-1218,0120,-1610,0023,0009,0015,089.8058,052.3509,005.0534
464229303,-1227,0126,-1594,0024,0012,0013,089.5465,052.8118,005.7081
464235101,-1220,0128,-1586,0024,0009,0012,089.4058,052.1841,005.8858
464240828,-1220,0137,-1570,0021,0014,0012,089.3636,052.2912,006.0068
464246635,-1196,0129,-1589,0020,0015,0008,089.1149,051.9283,006.4665
464252337,-1223,0124,-1576,0019,0011,0005,089.3977,053.0001,006.1126
464258085,-1227,0121,-1577,0016,0013,0003,089.4657,051.9127,005.7476
464263843,-1212,0136,-1585,0018,0010,0001,089.5436,051.9868,005.6138
464269569,-1212,0109,-1573,0019,0007,0003,089.1768,052.4828,006.5216
464275260,-1183,0116,-1571,0021,0005,0001,089.8775,052.2430,004.9766
464280957,-1194,0116,-1587,0024,0003,0003,089.6295,052.9424,005.6573
464286602,-1216,0107,-1592,0024,0000,0008,089.6826,052.9036,005.5356
464292169,-1216,0105,-1571,0023,0002,0010,089.9018,052.4727,004.9755
464297877,-1209,0116,-1581,0026,0002,0013,089.8911,052.1112,004.9300
464303649,-1197,0107,-1595,0023,0002,0015,089.6294,052.5133,005.5645
464309432,-1211,0116,-1566,0024,0007,0020,089.9147,053.0751,005.0393
464315157,-1205,0110,-1548,0026,0001,0017,089.6022,052.0535,005.5176
464320905,-1225,0126,-1589,0026,-0002,0021,089.7469,051.9724,005.1917
464326664,-1223,0140,-1611,0026,-0001,0015,089.4036,052.2537,005.9748
464332429,-1216,0138,-1570,0022,0006,0012,089.1572,052.6615,006.6108
464338147,-1228,0134,-1592,0028,0004,0011,089.1582,051.9856,006.4562
464343935,-1224,0150,-1591,0024,0002,0008,089.3123,052.2148,006.1914
464349588,-1233,0129,-1598,0023,-0001,0003,088.9041,052.2138,007.0819
464355253,-1237,0116,-1561,0022,0002,0003,089.4891,052.1860,005.8382
464360946,-1236,0137,-1600,0020,0000,0000,089.6786,051.3892,005.2968
464366425,-1233,0131,-1582,0018,0004,-0003,089.2322,052.2050,006.4152
464372107,-1237,0111,-1596,0016,0008,-0001,089.3925,051.8691,006.0198
464377814,-1241,0093,-1588,0021,0009,0004,089.9023,052.1377,005.0092
464383525,-1228,0102,-1590,0019,0011,0010,090.2706,051.8824,004.1950
464389319,-1238,0108,-1588,0021,0011,0011,089.9943,052.2745,004.8370
464395156,-1228,0110,-1552,0023,0013,0014,089.8793,051.9029,005.0105
464400951,-1221,0099,-1605,0027,0008,0017,089.7803,051.4862,005.1330
464406709,-1212,0127,-1593,0027,0014,0018,090.1587,052.8231,004.5587
464412522,-1202,0147,-1583,0026,0014,0020,089.3772,052.5431,006.2069
464418302,-1229,0130,-1613,0026,0011,0021,088.9807,052.5873,007.0867
464424119,-1197,0128,-1600,0027,0014,0018,089.5235,052.5319,005.8898
464429966,-1209,0150,-1608,0027,0010,0013,089.4700,053.1277,006.1409
464435732,-1220,0161,-1558,0026,0013,0009,088.9668,052.8096,007.2008
464441495,-1203,0157,-1570,0027,0012,0006,088.6577,051.5654,007.5503
464447238,-1209,0159,-1580,0029,0011,0007,088.8339,052.3979,007.4167
464453037,-1214,0134,-1573,0026,0011,0007,088.7941,052.3278,007.5014
464458794,-1191,0131,-1590,0030,0014,0010,089.4132,052.1484,006.1346
464464534,-1221,0119,-1630,0032,0014,0014,089.4399,053.1181,006.2949
464470410,-1205,0137,-1582,0035,0012,0014,089.8034,053.0184,005.4535
464476175,-1214,0107,-1567,0039,0010,0017,089.2140,052.4553,006.6202
464481958,-1226,0110,-1556,0039,0009,0022,090.0065,052.0800,004.8347
464487721,-1206,0095,-1556,0038,0007,0028,089.7980,051.5971,005.1616
464493431,-1196,0101,-1575,0036,0005,0029,090.1835,052.1836,004.4399
464499204,-1200,0100,-1585,0035,0006,0027,090.0149,052.7489,004.8772
464504887,-1211,0118,-1585,0034,0000,0028,090.0648,052.7712,004.7512
464510512,-1192,0115,-1571,0033,-0001,0022,089.6127,052.4465,005.6609
464516243,-1205,0095,-1590,0031,0000,0022,089.7083,052.7005,005.4950
464521859,-1215,0126,-1580,0034,-0005,0020,090.2121,052.7546,004.3882
464527607,-1220,0130,-1605,0035,0003,0018,089.3544,052.2197,006.1293
464533326,-1226,0119,-1579,0036,0002,0018,089.4225,052.6508,006.0723
464539082,-1217,0132,-1598,0034,0001,0014,089.6357,051.9487,005.4656
464544829,-1221,0126,-1589,0032,0004,0010,089.3168,052.6290,006.2950
464550580,-1218,0139,-1594,0033,0004,0010,089.4955,052.2639,005.8298
464556310,-1226,0126,-1583,0033,0007,0007,089.1603,052.4568,006.6013
464562017,-1212,0129,-1594,0028,0006,0010,089.5086,052.0437,005.7684
464567740,-1212,0125,-1600,0027,0009,0010,089.4106,052.6741,006.1195
464573452,-1219,0118,-1598,0027,0007,0013,089.5352,052.7102,005.8562
464579218,-1225,0127,-1588,0027,0008,0007,089.6906,052.5039,005.4793
464584919,-1230,0109,-1594,0024,0004,0007,089.4296,052.1593,005.9746
464590621,-1233,0112,-1592,0026,0008,0008,089.9239,052.2414,004.9422
464596386,-1225,0110,-1575,0020,0009,0011,089.7786,052.1079,005.2276
464602133,-1223,0115,-1573,0025,0012,0011,089.8213,051.9968,005.1170
464607925,-1217,0101,-1579,0023,0012,0011,089.6835,052.0122,005.4112
464613741,-1216,0127,-1583,0026,0008,0007,090.0769,052.3201,004.6346
464619433,-1213,0136,-1558,0025,0009,0008,089.3723,052.3144,006.1449
464625115,-1192,0126,-1585,0025,0009,0007,089.2014,051.8814,006.4196
464630788,-1221,0132,-1559,0028,0008,0011,089.5233,053.0236,005.9833
464636561,-1207,0123,-1568,0029,0003,0012,089.2852,051.6205,006.1886
464642285,-1199,0129,-1605,0032,0001,0014,089.5574,052.3407,005.7698
464648057,-1209,0138,-1594,0032,-0004,0017,089.4448,053.1886,006.1984
464653809,-1195,0125,-1586,0032,-0007,0022,089.2159,052.5548,006.5548
464659564,-1217,0131,-1571,0031,-0005,0024,089.5474,052.8843,005.8925
464665372,-1224,0122,-1574,0032,-0005,0031,089.3139,051.9555,006.1809
464671163,-1232,0119,-1581,0026,-0006,0030,089.5782,051.9883,005.6227
464676867,-1241,0132,-1559,0033,-0004,0032,089.6204,051.9284,005.5062
464682622,-1239,0116,-1570,0029,-0003,0032,089.2285,051.2290,006.1543
464688396,-1238,0117,-1599,0030,0000,0028,089.7217,051.6488,005.2249
464694002,-1224,0129,-1582,0032,0003,0027,089.6704,052.1758,005.4207
464699757,-1238,0108,-1586,0032,0002,0024,089.3367,052.1020,006.1052
464705506,-1233,0113,-1598,0033,0005,0020,089.9193,051.8883,004.8302
464711222,-1226,0089,-1588,0031,0005,0015,089.7316,052.2711,005.2894
464716964,-1223,0108,-1593,0035,0004,0010,090.3402,052.2490,003.9832
464722690,-1215,0103,-1614,0032,0008,0007,089.7829,052.3909,005.1906
464728412,-1220,0119,-1593,0034,0007,0005,090.0156,052.9984,004.7901
464734094,-1219,0130,-1603,0038,0008,0006,089.5601,052.3462,005.6580
464739763,-1244,0112,-1599,0034,0004,0004,089.3695,052.6180,006.1338
464745466,-1217,0119,-1602,0035,0005,0010,089.8222,051.9282,005.0250
464751196,-1217,0112,-1627,0028,0002,0008,089.5981,052.7426,005.6639
464756904,-1230,0121,-1585,0027,0003,0014,089.8371,053.1240,005.2066
464762662,-1237,0122,-1566,0030,0002,0014,089.5106,051.9037,005.6700
464768381,-1249,0128,-1589,0031,0006,0012,089.4937,051.5067,005.6244
464774140,-1228,0123,-1606,0027,0010,0013,089.3898,051.7074,005.8826
464779919,-1226,0118,-1554,0024,0013,0014,089.5638,052.5687,005.6968
464785708,-1223,0096,-1581,0022,0011,0013,089.5660,051.4830,005.4768
464791515,-1230,0093,-1581,0026,0011,0011,090.1910,052.3058,004.3178
464797347,-1220,0117,-1574,0027,0012,0012,090.1616,051.9926,004.3240
464803136,-1203,0114,-1577,0023,0015,0013,089.5387,052.1063,005.6537
464808925,-1208,0100,-1598,0023,0017,0012,089.7130,052.5979,005.3810
464814674,-1189,0112,-1594,0020,0011,0013,090.0731,052.8477,004.6383
464820511,-1208,0106,-1593,0019,0009,0014,089.7144,053.2025,005.5026
464826256,-1204,0092,-1581,0021,0008,0013,089.9169,052.6471,004.9486
464831996,-1220,0118,-1581,0023,0006,0017,090.2111,052.6209,004.2976
464837743,-1213,0131,-1576,0021,0005,0015,089.5151,052.1492,005.7035
464843490,-1228,0124,-1569,0023,0001,0013,089.2826,052.2621,006.2290
464849226,-1221,0128,-1578,0024,0001,0014,089.4798,051.7411,005.7049
464855002,-1231,0135,-1587,0025,0006,0012,089.3709,052.1711,006.0292
464860709,-1233,0133,-1565,0024,0004,0011,089.2353,052.0099,006.2886
464866467,-1246,0137,-1558,0029,0008,0007,089.2634,051.5442,006.1341
464872164,-1221,0150,-1537,0027,0007,0003,089.1474,051.1274,006.2888
464877832,-1216,0155,-1578,0027,0007,0005,088.7988,051.3388,007.0597
464883526,-1208,0133,-1548,0026,0011,0002,088.8136,052.2743,007.2902
464889332,-1184,0128,-1550,0025,0011,0004,089.2921,051.8202,006.1787
464895080,-1180,0130,-1593,0028,0008,0003,089.3761,052.5107,006.1644
464900743,-1185,0109,-1590,0027,0008,0005,089.4104,053.3955,006.2979
464906442,-1191,0112,-1595,0035,-0001,0006,089.9030,053.1561,005.1298
464912108,-1183,0113,-1614,0037,-0006,0014,089.7769,053.1174,005.3956
464917855,-1191,0122,-1585,0037,-0007,0016,089.7950,053.7050,005.4600
464923613,-1183,0114,-1587,0037,-0014,0018,089.5210,052.8293,005.8892
464929433,-1193,0116,-1575,0035,-0011,0024,089.7467,053.2062,005.4495
464935237,-1204,0133,-1605,0037,-0013,0025,089.6386,052.6581,005.5637
464941026,-1209,0143,-1615,0038,-0018,0023,089.2810,052.9891,006.4152
464946830,-1232,0133,-1582,0034,-0017,0020,089.1102,052.9761,006.7912
464952626,-1242,0142,-1600,0032,-0016,0019,089.3115,051.7668,006.0726
464958429,-1228,0140,-1573,0034,-0011,0018,089.0943,052.0211,006.5848
464964232,-1226,0124,-1575,0034,-0012,0015,089.1169,051.8018,006.4868
464970022,-1254,0127,-1591,0037,-0008,0011,089.5318,051.9755,005.6545
464975779,-1239,0113,-1586,0030,-0006,0015,089.4206,051.5564,005.7975
464981462,-1253,0098,-1605,0031,0001,0013,089.7763,051.9236,005.1309
464987187,-1250,0095,-1589,0031,0000,0015,090.1282,051.9305,004.3896
464992746,-1240,0079,-1595,0032,0005,0016,090.1295,051.7045,004.3400
464998493,-1223,0093,-1598,0028,0008,0017,090.5337,052.1294,003.5473
465004309,-1223,0100,-1578,0028,0009,0018,090.1185,052.5454,004.4779
465010041,-1216,0097,-1600,0024,0009,0022,089.9693,052.0685,004.7062
465015759,-1208,0096,-1578,0026,0008,0017,090.0965,052.7604,004.5411
465021507,-1228,0100,-1587,0022,0010,0020,090.0644,052.4378,004.5489
465027206,-1209,0117,-1604,0024,0007,0022,089.9774,052.1367,004.6738
465032946,-1205,0110,-1580,0021,0008,0019,089.5917,052.9682,005.6623
465038732,-1213,0115,-1573,0025,0006,0016,089.7784,052.4926,005.1575
465044470,-1216,0108,-1615,0027,0008,0014,089.6160,052.2021,005.4482
465050300,-1201,0119,-1606,0028,0004,0012,089.8865,053.0214,005.0132
465056049,-1211,0126,-1610,0024,0005,0007,089.5633,053.0778,005.7509
465061725,-1223,0129,-1581,0025,0003,0010,089.4514,052.8743,005.9621
465067415,-1213,0111,-1589,0022,0005,0008,089.3393,052.0204,006.0284
465073095,-1237,0112,-1605,0025,0003,0010,089.8215,052.5918,005.1141
465078787,-1225,0129,-1556,0026,0005,0012,089.7582,052.2208,005.1798
465084550,-1240,0117,-1591,0025,0011,0013,089.2503,051.5599,006.1103
465090351,-1230,0114,-1566,0028,0008,0013,089.6945,051.9983,005.2785
465096113,-1219,0106,-1585,0026,0014,0013,089.6575,051.6942,005.2977
465101944,-1220,0116,-1599,0026,0013,0011,089.9059,052.4395,004.9117
465107776,-1205,0098,-1589,0024,0014,0010,089.6371,052.5453,005.5143
465113526,-1219,0110,-1583,0025,0016,0013,090.1087,052.7605,004.5233
465119351,-1216,0113,-1618,0030,0016,0012,089.7229,052.2129,005.2536
465125129,-1190,0108,-1577,0026,0014,0012,089.7684,053.0627,005.3173
465130896,-1191,0119,-1600,0027,0015,0011,089.8140,052.8229,005.1696
465136686,-1209,0111,-1569,0028,0012,0015,089.5732,053.2577,005.7919
465142451,-1188,0123,-1580,0025,0006,0013,089.7496,052.1487,005.1850
465148201,-1212,0113,-1595,0021,0005,0010,089.4550,053.0032,006.0048
465153919,-1200,0089,-1602,0023,0003,0015,089.7657,052.5956,005.2372
465159639,-1216,0092,-1563,0018,0003,0011,090.3259,053.1542,004.0965
465165372,-1220,0089,-1579,0018,0000,0017,090.1145,051.9133,004.3553
465171023,-1220,0094,-1581,0014,0000,0014,090.2350,052.2689,004.1546
465176652,-1250,0097,-1603,0020,0003,0010,090.0991,052.2545,004.4386
465182303,-1261,0089,-1589,0018,0006,0007,090.0758,051.9342,004.4386
465187950,-1243,0093,-1567,0019,0008,0005,090.2565,051.4443,003.9949
465193657,-1248,0090,-1568,0021,0014,0004,090.1024,051.5049,004.3179
465199367,-1230,0104,-1577,0021,0017,0005,090.2036,051.3966,004.0978
465205144,-1240,0107,-1573,0019,0023,0000,089.8434,052.0374,004.9514
465210762,-1209,0126,-1570,0015,0027,-0002,089.8232,051.6052,004.9299
465216531,-1211,0127,-1578,0018,0021,-0002,089.3479,052.3396,006.0897
465222301,-1177,0122,-1550,0017,0023,-0004,089.4138,052.3469,005.9708
465228058,-1211,0126,-1592,0018,0020,-0007,089.4829,052.6616,005.9107
465233788,-1199,0134,-1576,0016,0017,-0009,089.4720,052.5806,005.9410
465239555,-1205,0141,-1576,0014,0012,-0010,089.2585,052.5597,006.4295
465245306,-1176,0112,-1601,0017,0011,-0009,089.1271,052.3876,006.7015
465251063,-1201,0105,-1585,0019,0002,-0005,089.9151,053.7432,005.2464
465256760,-1219,0093,-1593,0021,-0002,-0001,089.9508,052.6202,004.9653
465262433,-1204,0111,-1594,0020,-0004,-0001,090.2576,052.4702,004.2826
465268085,-1205,0108,-1573,0024,-0003,0003,089.7783,052.8557,005.3968
465273733,-1203,0101,-1576,0026,0000,0012,089.8755,052.3863,005.0937
465279381,-1209,0127,-1545,0028,-0001,0013,090.0390,052.5568,004.7661
465285160,-1211,0127,-1583,0026,0001,0014,089.3297,051.7277,006.1053
465290914,-1211,0129,-1590,0027,-0003,0016,089.4770,052.5320,005.9684
465296695,-1225,0133,-1564,0025,-0002,0017,089.4183,052.5442,006.0992
465302442,-1190,0127,-1580,0027,-0003,0020,089.2731,051.6609,006.2099
465308154,-1218,0126,-1573,0024,0001,0017,089.4735,052.9998,006.0789
465313881,-1215,0141,-1574,0026,0002,0018,089.4600,051.9827,005.8867
465319640,-1226,0126,-1590,0025,0001,0014,089.0870,052.1653,006.7248
465325345,-1233,0132,-1582,0026,0003,0014,089.5498,052.2202,005.7526
465331104,-1233,0119,-1596,0024,0003,0010,089.3227,051.8581,006.1607
465336795,-1243,0137,-1593,0026,0005,0011,089.7075,052.2197,005.4270
465342556,-1215,0129,-1588,0026,0008,0011,089.2060,051.8157,006.4030
465348317,-1229,0131,-1593,0022,0011,0011,089.4693,052.5168,006.0074
465354219,-1218,0142,-1552,0025,0006,0010,089.3919,052.1338,006.0960
465359904,-1221,0129,-1588,0028,0006,0008,089.0545,051.6398,006.6989
465365591,-1240,0122,-1587,0027,0008,0011,089.4984,052.3763,005.9346
465371354,-1231,0126,-1553,0025,0008,0005,089.6148,051.7894,005.5738
465377037,-1218,0131,-1587,0028,0005,0010,089.4338,051.4099,005.8710
465382748,-1238,0118,-1556,0024,0007,0012,089.3985,052.4685,006.1804
465388469,-1219,0111,-1558,0024,0005,0010,089.6706,051.2309,005.3597
465394205,-1208,0106,-1587,0019,0005,0009,089.8212,051.9139,005.1853
465399918,-1219,0127,-1573,0020,0000,0009,089.9819,052.7106,004.9905
465405474,-1192,0106,-1580,0027,0000,0011,089.4299,052.0082,006.0357
465411130,-1211,0111,-1594,0025,0001,0013,090.0063,052.9449,004.9754
465416864,-1209,0146,-1575,0022,0000,0015,089.8396,052.6118,005.2760
465422506,-1227,0132,-1581,0026,-0001,0020,088.9749,052.2443,007.0635
465428240,-1236,0161,-1567,0026,-0002,0018,089.4408,051.9859,006.0124
465434005,-1226,0153,-1596,0025,-0003,0019,088.6010,051.4187,007.6277
465439710,-1258,0136,-1583,0028,-0001,0024,088.9974,052.3640,007.0434
465445457,-1233,0150,-1587,0029,0000,0021,089.3363,051.2336,006.0670
465451085,-1253,0140,-1587,0029,-0002,0024,088.9524,052.0318,007.0489
465456815,-1230,0131,-1595,0029,0002,0024,089.2477,051.4658,006.2950
465462549,-1229,0126,-1568,0027,-0001,0022,089.4522,052.3042,006.0503
465468334,-1220,0133,-1611,0028,0003,0019,089.4937,051.6809,005.8267
465474073,-1231,0124,-1581,0025,0005,0018,089.3998,052.8418,006.2824
465479812,-1224,0130,-1557,0024,0004,0019,089.5749,051.8301,005.6859
465485551,-1220,0108,-1589,0026,0004,0014,089.3539,051.6469,006.1078
465491309,-1223,0132,-1567,0026,0003,0016,090.0064,052.4818,004.8934
465497074,-1220,0107,-1576,0030,0009,0012,089.2644,051.7814,006.3236
465502793,-1205,0114,-1613,0027,0008,0006,090.0194,052.1960,004.8232
465508504,-1217,0117,-1583,0027,0008,0003,089.8080,053.2424,005.4846
465514204,-1234,0123,-1611,0025,0011,0003,089.7138,052.1967,005.4889
465519943,-1201,0124,-1604,0029,0007,0000,089.6356,052.4350,005.7120
465525536,-1201,0139,-1590,0026,0011,0002,089.6118,053.0986,005.9128
465531309,-1204,0139,-1574,0031,0009,0002,089.2231,052.6961,006.6948
465537012,-1190,0122,-1607,0029,0008,0000,089.2518,052.3656,006.5664
465542619,-1197,0124,-1598,0031,0006,0001,089.7315,053.4568,005.7514
465548316,-1189,0136,-1595,0031,0007,0008,089.6049,052.9542,005.9312
465554012,-1201,0120,-1577,0028,0008,0010,089.3269,053.1356,006.6010
465559718,-1214,0126,-1585,0028,0005,0015,089.7120,052.5024,005.6075
465565449,-1201,0124,-1581,0026,0009,0017,089.5304,052.3835,005.9730
465571217,-1209,0109,-1590,0024,0007,0021,089.5956,052.6609,005.8880
465576973,-1200,0130,-1574,0021,0005,0021,089.9760,052.6303,005.0465
465582737,-1219,0112,-1587,0020,0004,0022,089.3719,052.4963,006.3293
465588458,-1221,0121,-1588,0022,0009,0024,089.9209,052.3306,005.1055
465594209,-1214,0122,-1607,0021,0009,0026,089.6144,052.3005,005.7481
465599975,-1204,0101,-1589,0021,0010,0024,089.6678,052.8615,005.7443
465605740,-1217,0137,-1567,0018,0010,0020,090.1453,052.7313,004.6650
465611506,-1217,0128,-1598,0018,0013,0021,089.1393,051.8925,006.6481
465617359,-1228,0131,-1624,0017,0011,0017,089.5731,052.6650,005.8990
465623189,-1217,0124,-1585,0011,0018,0013,089.4848,052.7598,006.1247
465629045,-1226,0123,-1607,0011,0015,0009,089.6033,052.2674,005.7742
465634769,-1207,0128,-1601,0014,0011,0010,089.6563,052.5512,005.7281
465640551,-1211,0130,-1580,0016,0011,0005,089.5213,052.8729,006.1062
465646325,-1211,0121,-1561,0015,0011,0001,089.4594,052.2989,006.1311
465652023,-1201,0111,-1621,0021,0014,-0001,089.6604,052.0316,005.6600
465657748,-1205,0121,-1589,0018,0010,-0002,090.0011,053.5384,005.2207
465663472,-1212,0107,-1578,0015,0004,-0005,089.6627,052.5682,005.7987
465669170,-1199,0118,-1589,0015,0002,-0002,090.0403,052.3334,004.9512
465674817,-1190,0130,-1585,0021,0002,-0003,089.7493,052.8852,005.7011
465680501,-1201,0115,-1587,0020,0004,0000,089.4941,052.9376,006.2931
465686040,-1195,0122,-1573,0020,0003,0002,089.8869,052.7328,005.3902
465691696,-1188,0129,-1589,0020,0000,0000,089.6621,052.6159,005.8684
465697138,-1203,0132,-1570,0018,-0001,0003,089.5540,053.0800,006.2213
465702829,-1208,0116,-1548,0024,-0001,0005,089.4578,052.2944,006.2631
465708485,-1223,0108,-1567,0022,-0003,0007,089.8120,051.8685,005.4289
465714169,-1236,0131,-1554,0026,-0001,0010,090.0219,051.9193,004.9984
465719917,-1240,0131,-1575,0027,-0002,0013,089.3822,051.2651,006.1799
465725696,-1252,0121,-1566,0026,-0001,0013,089.5124,051.6806,006.0069
465731446,-1242,0145,-1564,0027,0001,0011,089.7328,051.1575,005.4513
465737218,-1240,0133,-1586,0029,0003,0017,089.0669,051.3809,006.8477
465742938,-1223,0140,-1593,0026,0003,0017,089.5221,051.8753,006.0220
465748668,-1214,0141,-1589,0030,0003,0014,089.3017,052.3602,006.6020
465754347,-1218,0133,-1613,0030,0000,0016,089.2993,052.4374,006.6266
465759963,-1203,0136,-1594,0030,0002,0016,089.5396,052.8114,006.1859
465765698,-1211,0123,-1599,0028,0004,0018,089.3978,052.7728,006.4890
465771473,-1216,0132,-1579,0032,0002,0019,089.7479,052.7053,005.6962
465777198,-1201,0121,-1589,0028,0003,0015,089.4319,052.1678,006.2615
465782919,-1211,0103,-1587,0031,0000,0014,089.7686,052.8576,005.6766
465788593,-1201,0111,-1610,0029,0000,0015,090.1561,052.5070,004.7556
465794229,-1241,0095,-1608,0028,-0004,0015,089.9447,053.2360,005.3475
465799945,-1229,0103,-1601,0027,-0002,0017,090.3454,052.1404,004.2713
465805725,-1226,0097,-1600,0023,0001,0016,090.0820,052.4209,004.8695
465811429,-1230,0107,-1580,0026,-0001,0016,090.2613,052.4487,004.4793
465817183,-1221,0098,-1559,0026,0007,0012,089.9510,051.9254,005.0407
465822930,-1219,0111,-1573,0025,0008,0011,090.1842,051.8285,004.5349
465828677,-1205,0110,-1583,0023,0008,0010,089.8463,052.1465,005.2979
465834409,-1239,0114,-1599,0024,0010,0007,089.9373,052.6665,005.2030
465840135,-1194,0107,-1579,0024,0012,0006,089.8558,052.0408,005.2619
465845842,-1224,0112,-1589,0024,0013,0001,090.0066,052.8816,005.1000
465851583,-1195,0112,-1561,0023,0012,0001,089.8840,052.1922,005.2423
465857314,-1191,0121,-1574,0023,0012,0001,089.8558,052.4650,005.3620
465863105,-1209,0110,-1603,0021,0014,0001,089.6642,052.7766,005.8532
465868868,-1202,0096,-1587,0024,0011,0006,090.0155,052.8715,005.1005
465874570,-1193,0101,-1604,0025,0008,0001,090.2830,052.7546,004.4940
465880263,-1205,0088,-1559,0023,0009,0006,090.1494,053.3299,004.8879
465885930,-1193,0110,-1580,0026,0006,0007,090.4085,052.1358,004.1219
465891640,-1183,0101,-1576,0024,0001,0010,089.8725,052.9035,005.4076
465897364,-1201,0096,-1593,0026,0005,0007,090.1439,053.0116,004.8242
465903098,-1200,0113,-1555,0025,0002,0008,090.2633,052.8760,004.5326
465908788,-1200,0096,-1568,0026,0000,0007,089.7829,052.1622,005.4405
465914347,-1211,0105,-1580,0023,-0003,0005,090.2493,052.5005,004.5051
465920094,-1196,0104,-1578,0025,-0006,0002,090.0064,052.4077,005.0126
465925736,-1219,0110,-1598,0021,-0008,-0004,090.0635,052.7599,004.9603
465931449,-1230,0128,-1583,0024,-0011,-0006,089.9479,052.5107,005.1747
465937184,-1208,0126,-1602,0026,-0015,-0009,089.4942,051.9199,006.0343
465942947,-1206,0112,-1604,0030,-0018,-0005,089.6510,052.9606,005.9309
465948679,-1239,0109,-1611,0030,-0018,-0003,089.9754,052.9261,005.2083
465954407,-1219,0114,-1603,0032,-0018,0001,090.0141,052.2449,004.9975
465960153,-1254,0128,-1617,0033,-0015,0002,089.8716,052.6702,005.3834
465965881,-1246,0107,-1557,0029,-0016,0006,089.5797,051.9822,005.8703
465971638,-1262,0128,-1604,0031,-0012,0011,090.0318,051.1121,004.7743
465977454,-1267,0107,-1592,0029,-0011,0012,089.5171,051.7278,005.9351
465983247,-1263,0115,-1593,0030,-0001,0017,090.0897,051.3324,004.6815
465988960,-1262,0135,-1578,0027,-0002,0016,089.8110,051.4850,005.2670
465994743,-1267,0125,-1588,0026,0007,0020,089.3019,051.1437,006.2241
466000449,-1255,0111,-1590,0025,0012,0016,089.6455,051.2932,005.5644
466006258,-1243,0123,-1588,0022,0017,0013,089.9656,051.6524,004.9807
466012082,-1272,0135,-1585,0024,0018,0012,089.6083,051.8365,005.7565
466017882,-1260,0129,-1601,0019,0027,0012,089.3560,051.0020,006.1008
466023663,-1278,0115,-1601,0020,0026,0008,089.5811,051.7441,005.8117
466029359,-1241,0143,-1593,0020,0027,0003,089.8994,051.2443,005.0733
466035068,-1254,0123,-1606,0021,0028,0002,089.1550,051.9869,006.7783
466040824,-1238,0127,-1606,0015,0032,0001,089.7800,051.8744,005.4573
466046547,-1237,0121,-1605,0023,0033,0003,089.6102,052.2790,005.9083
466052272,-1244,0125,-1602,0029,0029,0005,089.7804,052.2458,005.5422
466058069,-1241,0137,-1582,0030,0027,0004,089.6563,052.0037,005.7600
466063803,-1223,0140,-1574,0033,0028,0007,089.3343,051.6842,006.3671
466069556,-1203,0147,-1583,0030,0028,0008,089.2867,052.0190,006.5523
466075282,-1204,0140,-1588,0028,0029,0012,089.1421,052.6425,007.0256
466081089,-1183,0145,-1599,0035,0026,0010,089.3541,052.6493,006.5657
466086882,-1168,0154,-1545,0035,0023,0010,089.2240,053.4037,007.0498
466092652,-1191,0148,-1581,0035,0025,0012,088.9240,052.6395,007.5299
466098409,-1181,0137,-1588,0043,0021,0019,089.1734,052.8190,007.0209
466104224,-1178,0134,-1590,0046,0020,0020,089.4223,053.2293,006.5532
466109982,-1166,0145,-1607,0051,0018,0026,089.4559,053.2979,006.4741
466115813,-1157,0146,-1585,0058,0012,0036,089.2065,053.9082,007.1780
466121612,-1163,0163,-1565,0065,0011,0043,089.1570,053.6292,007.1844
466127416,-1175,0149,-1577,0065,0010,0050,088.7041,053.0722,008.0363
466133137,-1159,0154,-1569,0065,0009,0053,089.0828,053.0914,007.1440
466138882,-1182,0148,-1612,0068,0003,0054,088.8933,053.3200,007.5957
466144619,-1195,0144,-1532,0069,0005,0052,089.1342,053.5649,007.0614
466150412,-1193,0144,-1570,0070,0000,0055,088.9991,051.7469,006.8546
466156038,-1183,0122,-1570,0069,-0003,0052,089.0733,052.6417,006.8783
466161797,-1192,0146,-1561,0069,-0005,0046,089.5768,052.8699,005.7767
466167533,-1179,0126,-1568,0074,-0011,0048,088.9098,052.3778,007.0795
466173363,-1181,0114,-1603,0074,-0012,0051,089.4513,052.9518,005.9778
466179165,-1185,0111,-1585,0073,-0015,0046,089.7287,053.5649,005.4266
466185031,-1211,0102,-1604,0075,-0016,0040,089.7051,053.0207,005.3242
466190789,-1202,0097,-1576,0071,-0023,0040,089.9359,052.8107,004.7279
466196533,-1182,0087,-1577,0063,-0024,0036,089.9596,052.5342,004.5886
466202311,-1192,0081,-1610,0059,-0024,0029,090.1836,053.1184,004.1533
466208077,-1217,0081,-1571,0052,-0024,0029,090.3294,053.4516,003.8374
466213833,-1209,0078,-1602,0048,-0028,0022,090.2438,052.0061,003.7953
466219602,-1218,0076,-1587,0043,-0025,0018,090.3573,053.0263,003.6662
466225371,-1231,0068,-1579,0040,-0023,0015,090.3606,052.3386,003.5491
466231090,-1209,0074,-1605,0035,-0021,0010,090.5446,051.9573,003.1020
466236849,-1221,0066,-1595,0029,-0022,0010,090.3886,053.0991,003.5629
466242608,-1213,0083,-1618,0022,-0018,0002,090.5966,052.4299,003.0264
466248357,-1241,0091,-1578,0015,-0016,-0001,090.1759,053.1548,004.0424
466254066,-1256,0099,-1588,0013,-0009,-0005,089.9913,051.5604,004.2104
466259765,-1252,0117,-1596,0011,-0014,-0009,089.8375,051.5599,004.5414
466265524,-1257,0117,-1594,0006,-0010,-0011,089.4293,051.7813,005.4467
466271250,-1270,0123,-1600,0003,-0006,-0011,089.4952,051.5905,005.3031
466277016,-1287,0119,-1577,-0001,-0002,-0018,089.3687,051.3995,005.5606
466282696,-1264,0145,-1585,-0002,0003,-0017,089.4600,050.5776,005.2555
466288387,-1278,0164,-1595,-0007,0010,-0019,088.8279,051.3244,006.7134
466294121,-1275,0151,-1603,-0006,0015,-0021,088.4868,051.0353,007.3830
466299840,-1260,0163,-1576,-0009,0018,-0028,088.8976,051.3360,006.6836
466305609,-1248,0154,-1610,-0014,0017,-0027,088.5095,051.0938,007.4694
466311423,-1244,0160,-1585,-0015,0016,-0037,088.9132,052.1397,006.9705
466317242,-1215,0156,-1587,-0018,0016,-0039,088.6812,051.5690,007.3826
466323076,-1218,0145,-1580,-0018,0013,-0038,088.8619,052.4640,007.3072
466328900,-1200,0141,-1590,-0017,0014,-0035,089.1299,052.1262,006.7094
466334680,-1224,0133,-1582,-0017,0013,-0033,089.2434,052.8655,006.7045
466340488,-1215,0135,-1564,-0007,0014,-0027,089.4385,051.9905,006.1288
466346264,-1217,0123,-1605,-0004,0017,-0021,089.3441,051.9851,006.3697
466352004,-1208,0127,-1587,-0003,0019,-0012,089.7573,052.7888,005.6884
466357742,-1224,0138,-1582,0003,0019,-0006,089.5793,052.5381,006.0509
466363435,-1187,0154,-1577,0005,0020,0003,089.3320,052.0368,006.4894
466369122,-1214,0155,-1577,0012,0021,0006,088.9767,052.8862,007.5000
466374850,-1189,0157,-1594,0011,0020,0017,088.9980,052.0939,007.2570
466380664,-1215,0159,-1582,0012,0023,0017,088.9954,053.1992,007.5771
466386493,-1194,0172,-1602,0019,0014,0019,088.9235,052.0897,007.4436
466392321,-1191,0165,-1553,0022,0017,0026,088.6635,053.1795,008.3396
466398156,-1202,0160,-1586,0026,0009,0025,088.7512,052.1598,007.8502
466403910,-1183,0143,-1589,0033,0008,0027,088.9551,052.6614,007.5437
466409686,-1203,0145,-1558,0035,0002,0024,089.3453,053.1910,006.8020
466415399,-1187,0126,-1583,0038,0001,0024,089.1759,052.0275,006.8765
466421134,-1201,0120,-1554,0042,-0003,0015,089.7127,053.0944,005.9447
466426895,-1199,0110,-1577,0042,-0007,0017,089.7304,052.0729,005.6780
466432637,-1225,0119,-1574,0043,-0010,0012,090.0156,052.6991,005.1754
466438430,-1202,0087,-1574,0039,-0016,0010,089.7390,051.8571,005.5932
466444204,-1207,0089,-1589,0046,-0020,0010,090.5750,052.6362,003.9326
466449985,-1241,0080,-1569,0043,-0019,0004,090.4273,052.7006,004.2468
466455699,-1219,0088,-1581,0045,-0022,0008,090.6387,051.4418,003.6058
466461450,-1236,0085,-1568,0044,-0018,0004,090.4113,052.4137,004.1987
466467190,-1230,0087,-1574,0045,-0017,0005,090.4951,051.5734,003.8848
466472980,-1239,0058,-1591,0045,-0019,0005,090.4303,051.9666,004.0579
466478713,-1236,0079,-1577,0047,-0012,0005,091.1832,052.0592,002.4764
466484476,-1243,0069,-1580,0041,-0013,0006,090.5127,051.8116,003.8190
466490233,-1242,0072,-1598,0041,-0009,0002,090.8641,051.7467,003.0724
466495976,-1243,0088,-1592,0038,-0011,0001,090.7496,052.1349,003.3401
466501731,-1238,0096,-1569,0035,-0005,0002,090.3493,051.9135,004.1362
466507380,-1246,0084,-1571,0030,-0002,-0001,090.1662,051.5992,004.4636
466513016,-1253,0113,-1575,0031,0001,-0008,090.4995,051.5008,003.7718
466518712,-1239,0104,-1613,0027,0005,-0005,089.7247,051.3608,005.3231
466524427,-1246,0109,-1589,0025,0003,-0005,090.1161,052.5007,004.7200
466530101,-1250,0091,-1593,0016,0010,-0002,089.9077,051.7075,005.0301
466535769,-1249,0090,-1592,0012,0012,-0004,090.3910,051.8138,004.0611
466541443,-1232,0087,-1566,0009,0015,-0004,090.3618,051.8097,004.1307
466547113,-1236,0071,-1581,0005,0016,-0003,090.4090,051.7273,004.0324
466552774,-1194,0059,-1600,0003,0013,-0005,090.8337,051.9603,003.1950
466558455,-1203,0070,-1604,-0001,0013,-0005,091.1013,053.4164,002.7808
466564108,-1209,0069,-1589,-0004,0013,-0006,090.8075,053.0393,003.4057
466569780,-1173,0057,-1570,-0009,0008,-0009,090.8602,052.6396,003.2582
466575418,-1209,0070,-1613,-0013,0007,-0010,091.1236,053.2353,002.7606
466581124,-1200,0078,-1596,-0012,0007,-0014,090.8400,053.0780,003.3944
466586841,-1199,0083,-1576,-0015,0006,-0021,090.6774,052.9865,003.7721
466592576,-1203,0082,-1591,-0019,0002,-0022,090.5699,052.6270,003.9902
466598341,-1203,0082,-1592,-0014,0002,-0023,090.6453,052.8663,003.8921
466604060,-1191,0100,-1596,-0019,0008,-0024,090.6526,052.8530,003.9091
466609788,-1218,0103,-1563,-0019,0006,-0019,090.2325,053.2089,004.9348
466615540,-1189,0119,-1579,-0015,0005,-0019,090.1840,051.8298,004.8311
466621272,-1203,0117,-1576,-0019,0003,-0018,089.8397,053.0044,005.8384
466627032,-1194,0127,-1571,-0017,0001,-0012,089.9431,052.4455,005.5326
466632752,-1180,0126,-1562,-0014,0002,-0011,089.6964,052.6179,006.1401
466638511,-1197,0127,-1563,-0011,0004,-0009,089.7461,052.7811,006.1012
466644217,-1190,0124,-1590,-0007,0002,-0008,089.7357,052.3561,006.0605
466649862,-1208,0130,-1576,-0003,-0003,-0005,089.8754,053.1107,005.9426
466655508,-1211,0152,-1562,0000,-0003,-0006,089.7010,052.2836,006.1679
466661044,-1213,0140,-1555,0003,-0002,-0009,089.1804,051.9660,007.2301
466666681,-1206,0152,-1612,0001,0002,-0008,089.5116,051.8423,006.5311
466672342,-1230,0142,-1591,0003,0000,-0008,089.3309,053.1249,007.2762
466677840,-1242,0152,-1559,0011,-0002,-0004,089.5536,052.0186,006.5318
466683528,-1241,0135,-1588,0017,0000,-0001,089.2168,051.1430,007.0316
466689108,-1244,0122,-1571,0021,-0005,0006,089.7528,051.8958,006.1143
466694772,-1261,0117,-1595,0027,-0003,0015,089.9822,051.4338,005.5379
466700485,-1239,0146,-1606,0031,0000,0020,090.1181,051.5576,005.2718
466706121,-1239,0136,-1610,0037,-0003,0028,089.4078,052.2186,006.8883
466711944,-1237,0143,-1588,0040,-0006,0027,089.7372,052.2488,006.1724
466717659,-1234,0117,-1567,0044,-0004,0031,089.4599,051.8445,006.6454
466723441,-1231,0140,-1588,0043,-0003,0031,090.1068,051.6176,005.2305
466729198,-1236,0138,-1577,0047,-0005,0030,089.4543,052.0917,006.6720
466734940,-1241,0137,-1608,0045,0000,0025,089.5667,051.6835,006.3238
466740583,-1240,0144,-1602,0048,0000,0025,089.6320,052.2209,006.2901
466746191,-1231,0156,-1567,0051,0007,0018,089.4394,052.0544,006.6475
466751947,-1237,0131,-1579,0050,0009,0018,089.0672,051.5607,007.2946
466757686,-1239,0113,-1586,0052,0015,0014,089.7831,051.7979,005.8524
466763476,-1240,0126,-1599,0048,0014,0014,090.1438,051.8994,005.1044
466769268,-1216,0096,-1576,0053,0014,0019,089.7763,052.0869,005.8919
466775045,-1226,0092,-1588,0048,0022,0022,090.5293,052.2869,004.3065
466780827,-1228,0090,-1559,0052,0016,0027,090.5216,052.2469,004.2816
466786605,-1219,0112,-1593,0050,0012,0031,090.5097,051.6269,004.1756
466792374,-1221,0107,-1579,0047,0011,0035,089.9818,052.5879,005.4211
466798181,-1199,0096,-1588,0049,0007,0035,090.1484,052.1128,004.9418
466803936,-1225,0105,-1569,0049,0005,0035,090.3939,052.9612,004.5203
466809674,-1202,0094,-1588,0045,0000,0034,090.0864,051.7799,004.9433
466815284,-1239,0098,-1603,0044,0001,0032,090.4110,052.9099,004.4105
466821033,-1240,0091,-1592,0043,0003,0028,090.2810,052.1188,004.5331
466826763,-1236,0095,-1589,0035,0004,0030,090.4395,051.9904,004.1546
466832421,-1225,0093,-1592,0032,0007,0026,090.3030,052.0423,004.4268
466838200,-1225,0103,-1608,0034,0011,0022,090.3661,052.3861,004.3278
466844029,-1211,0098,-1612,0032,0016,0021,090.1211,052.6340,004.8806
466849919,-1231,0119,-1580,0028,0019,0020,090.2822,053.0565,004.5849
466855697,-1219,0099,-1573,0030,0024,0023,089.6716,051.7947,005.6514
466861433,-1213,0104,-1587,0029,0022,0026,090.2444,052.1823,004.5071
466867287,-1223,0109,-1575,0032,0019,0025,090.0494,052.5635,004.9718
466873096,-1208,0112,-1587,0032,0016,0026,089.9257,051.9835,005.1135
466878911,-1208,0097,-1603,0034,0020,0031,089.8786,052.7075,005.3317
466884643,-1195,0098,-1573,0032,0012,0033,090.2695,052.9363,004.4894
466890436,-1207,0100,-1605,0032,0011,0030,090.1342,052.6510,004.7152
466896186,-1192,0110,-1601,0034,0006,0026,090.1410,053.0026,004.7400
466901913,-1180,0107,-1575,0031,0003,0025,089.8796,053.2392,005.3525
466907652,-1181,0123,-1613,0031,0000,0019,089.9400,053.0208,005.1641
466913298,-1193,0126,-1612,0030,-0006,0018,089.6097,053.7153,006.0515
466919035,-1202,0106,-1605,0028,-0010,0011,089.5807,053.2812,006.0229
466924815,-1211,0129,-1587,0028,-0009,0007,090.0611,053.0195,004.8901
466930488,-1203,0113,-1600,0028,-0005,0005,089.3979,052.4202,006.2269
466936177,-1220,0122,-1606,0031,-0011,0003,089.9058,053.0012,005.2362
466941917,-1223,0124,-1569,0029,-0003,0000,089.6302,052.5841,005.7653
466947494,-1226,0123,-1596,0031,0000,0004,089.5510,051.8508,005.7854
466953062,-1224,0126,-1603,0030,0004,0007,089.6355,052.3777,005.7183
466958744,-1249,0125,-1574,0032,0010,0009,089.5671,052.5009,005.8928
466964443,-1244,0127,-1580,0036,0008,0013,089.5423,051.2951,005.6893
466970215,-1241,0113,-1605,0036,0011,0018,089.5020,051.6895,005.8474
466976025,-1229,0121,-1602,0035,0011,0022,089.9023,052.2425,005.1053
466981890,-1212,0134,-1613,0034,0012,0026,089.6276,052.3904,005.7077
466987687,-1204,0129,-1594,0035,0012,0024,089.3670,052.9884,006.4018
466993447,-1217,0116,-1554,0034,0010,0030,089.4830,052.7431,006.0758
466999216,-1197,0112,-1596,0033,0006,0032,089.6992,051.7054,005.3840
467004964,-1202,0117,-1581,0036,0009,0032,089.8458,053.2164,005.3416
467010704,-1199,0103,-1604,0035,0004,0031,089.6656,052.5461,005.5882
467016451,-1188,0114,-1555,0034,0004,0034,090.0642,053.2022,004.8089
467022200,-1205,0104,-1586,0033,-0001,0034,089.6588,052.4329,005.5351
467027941,-1190,0108,-1591,0035,0001,0030,089.9891,052.6975,004.8490
467033636,-1194,0115,-1591,0032,0001,0032,089.8428,053.1350,005.2325
467039406,-1216,0103,-1573,0031,0000,0027,089.6825,052.9575,005.5413
467045050,-1197,0105,-1567,0028,0001,0026,089.9582,052.1079,004.7730
467050875,-1215,0119,-1588,0031,0003,0021,089.8638,052.5638,005.0439
467056632,-1223,0111,-1624,0031,0003,0026,089.5525,052.4242,005.6775
467062412,-1229,0100,-1557,0034,0004,0022,089.8525,052.9655,005.1157
467068122,-1240,0125,-1586,0031,0004,0023,089.9633,051.4772,004.6061
467073871,-1261,0111,-1593,0032,0003,0024,089.3562,051.8847,005.9247
467079604,-1254,0124,-1578,0037,0002,0027,089.7967,051.4774,004.9223
467085374,-1241,0111,-1569,0034,0006,0024,089.3746,051.3732,005.7501
467091121,-1246,0100,-1582,0033,0008,0027,089.7469,051.5681,005.0176
467096866,-1251,0119,-1578,0032,0011,0024,089.9896,051.6997,004.5294
467102695,-1260,0108,-1601,0031,0007,0018,089.4530,051.4269,005.5709
467108470,-1245,0112,-1591,0033,0012,0015,089.8514,051.7280,004.8062
467114222,-1232,0106,-1566,0027,0013,0009,089.6804,051.8573,005.1848
467119985,-1233,0107,-1579,0028,0016,0003,089.8170,051.6815,004.8748
467125745,-1245,0100,-1605,0029,0015,0006,089.7949,051.9434,004.9685
467131451,-1231,0104,-1567,0026,0013,0006,090.0133,052.1280,004.5431
467137218,-1216,0098,-1579,0024,0013,0007,089.8228,051.6924,004.8679
467142941,-1219,0110,-1585,0022,0015,0011,090.0212,052.3969,004.5712
467148762,-1212,0102,-1551,0023,0016,0014,089.6947,052.3109,005.2532
467154554,-1203,0103,-1578,0024,0015,0016,089.8847,051.8518,004.7674
467160362,-1202,0099,-1556,0020,0014,0016,089.8819,052.6833,004.9172
467166131,-1205,0091,-1577,0018,0012,0017,089.9433,052.1732,004.6945
467171913,-1189,0089,-1576,0016,0008,0011,090.1728,052.5828,004.2709
467177691,-1202,0108,-1577,0019,0005,0007,090.1914,052.9211,004.2829
467183367,-1204,0107,-1585,0019,0001,0001,089.7335,052.5290,005.2235
467189047,-1225,0109,-1581,0016,0000,0000,089.8273,052.6803,005.0598
467194511,-1224,0098,-1559,0014,0001,-0006,089.7705,052.0661,005.0852
467200137,-1226,0113,-1570,0013,0002,-0004,090.0171,051.7398,004.5288
467205844,-1232,0090,-1575,0014,0004,-0007,089.6375,051.9108,005.3638
467211502,-1241,0107,-1576,0015,0010,-0004,090.2853,051.8855,004.0228
467217231,-1218,0116,-1581,0011,0007,-0007,089.7752,051.6442,005.0522
467222909,-1228,0113,-1585,0010,0008,-0006,089.6368,052.3466,005.4964
467228573,-1216,0124,-1583,0013,0009,-0008,089.7494,052.0824,005.2260
467234261,-1199,0135,-1576,0008,0014,-0005,089.4654,052.3580,005.9091
467239946,-1197,0121,-1569,0006,0010,-0005,089.2353,052.5813,006.4861
467245569,-1219,0123,-1557,0008,0011,-0004,089.5938,052.5099,005.7138
467251287,-1202,0125,-1596,0008,0005,-0005,089.5017,051.7211,005.7685
467256901,-1216,0125,-1559,0011,0005,-0001,089.5481,053.0146,005.9622
467262598,-1197,0140,-1582,0010,0004,0000,089.4810,051.7870,005.8632
467268157,-1205,0144,-1588,0011,0004,0003,089.1791,052.7869,006.7591
467273843,-1190,0123,-1583,0011,0001,0000,089.1375,052.5815,006.8241
467279424,-1215,0135,-1586,0011,-0004,0006,089.6371,052.9418,005.8190
467285132,-1204,0123,-1576,0009,-0005,0007,089.3055,052.2890,006.4146
467290822,-1225,0122,-1550,0014,-0004,0004,089.6332,052.4906,005.7662
467296504,-1233,0116,-1599,0018,0001,0007,089.5751,051.4480,005.6816
467302178,-1220,0120,-1605,0020,-0003,0009,089.8276,052.3360,005.3347
467307836,-1226,0120,-1579,0017,-0001,0011,089.7105,052.6554,005.6560
467313585,-1233,0109,-1602,0020,-0001,0013,089.6779,051.9453,005.5836
467319324,-1231,0126,-1587,0022,0003,0010,090.0005,052.3511,004.9789
467325038,-1232,0125,-1594,0023,0002,0017,089.5052,052.0089,005.9608
467330812,-1228,0139,-1577,0025,0005,0015,089.6120,052.1736,005.7702
467336485,-1238,0134,-1576,0026,0005,0016,089.2135,051.8760,006.5477
467342264,-1220,0129,-1573,0031,0005,0016,089.3938,051.6535,006.1214
467348026,-1237,0163,-1593,0027,0004,0016,089.4875,052.1014,006.0236
467353814,-1224,0155,-1602,0032,0007,0013,088.6694,051.9004,007.7136
467359573,-1238,0152,-1565,0030,0010,0013,089.0102,052.4667,007.1429
467365319,-1232,0142,-1585,0033,0007,0010,088.9524,051.3010,006.9758
467371024,-1220,0121,-1600,0034,0011,0008,089.2664,052.0490,006.5117
467376805,-1216,0126,-1614,0034,0010,0006,089.7826,052.6100,005.5266
467382511,-1194,0117,-1594,0037,0010,0010,089.6102,052.8872,005.9596
467388284,-1208,0125,-1593,0041,0005,0009,089.8142,053.0497,005.5330
467393932,-1200,0119,-1599,0041,0009,0009,089.5861,052.6301,005.9445
467399609,-1212,0090,-1602,0041,0004,0013,089.7680,053.0208,005.6162
467405282,-1218,0112,-1596,0040,0005,0018,090.4406,052.7827,004.0700
467411016,-1182,0088,-1580,0039,0006,0020,089.7922,052.4943,005.4120
467416796,-1200,0106,-1590,0037,0004,0020,090.4284,053.1927,004.1143
467422540,-1201,0106,-1574,0034,0002,0027,089.9104,052.7967,005.1751
467428300,-1207,0111,-1568,0033,0005,0024,089.9464,052.5132,005.0287
467434056,-1221,0112,-1553,0032,0003,0028,089.7984,052.2635,005.2833
467439792,-1240,0099,-1562,0032,0003,0028,089.7563,051.6438,005.2392
467445536,-1226,0121,-1566,0026,0006,0025,090.1074,051.4364,004.4746
467451293,-1245,0113,-1577,0025,0010,0024,089.4922,051.8567,005.8091
467457035,-1225,0105,-1559,0025,0013,0028,089.7989,051.5567,005.1073
467462846,-1238,0108,-1575,0024,0016,0026,089.9243,051.7633,004.8766
467468677,-1228,0109,-1569,0026,0013,0024,089.8518,051.7174,005.0080
467474488,-1224,0087,-1585,0022,0014,0020,089.8236,051.8590,005.0876
467480246,-1209,0095,-1561,0023,0015,0019,090.4134,052.3113,003.9117
467486007,-1227,0093,-1580,0021,0016,0017,090.0902,052.1381,004.5614
467491812,-1187,0123,-1575,0021,0014,0017,090.2053,052.0780,004.3027
467497668,-1185,0109,-1576,0023,0011,0016,089.4283,052.9507,006.1462
467503492,-1187,0108,-1559,0023,0010,0011,089.8772,052.9395,005.1487
467509288,-1192,0098,-1550,0019,0009,0010,089.8207,052.5659,005.2057
467514989,-1212,0088,-1585,0022,0009,0003,090.0546,052.3265,004.6644
467520670,-1187,0101,-1557,0023,0004,0002,090.3430,052.5433,004.0811
467526354,-1207,0095,-1600,0020,0003,0005,089.9588,052.5757,004.9185
467531969,-1223,0098,-1550,0021,0005,0004,090.2017,052.9171,004.4475
467537652,-1202,0099,-1573,0022,0004,0002,090.0285,051.5222,004.5898
467543325,-1220,0109,-1595,0020,0003,0000,090.0580,052.6296,004.7199
467548850,-1194,0121,-1589,0018,0005,-0002,089.8538,052.4576,005.1409
467554530,-1209,0126,-1595,0018,0003,-0004,089.5787,052.9914,005.8662
467560221,-1215,0111,-1585,0017,0003,-0002,089.5104,052.6425,005.9591
467565922,-1195,0115,-1594,0018,0002,-0005,089.8819,052.3737,005.1157
467571650,-1202,0118,-1593,0019,0000,0001,089.7518,053.0998,005.5514
467577229,-1208,0126,-1588,0020,-0004,0000,089.7020,052.7924,005.6102
467582785,-1220,0130,-1589,0019,-0003,0001,089.5119,052.5595,005.9899
467588457,-1211,0128,-1565,0021,-0005,0009,089.4396,052.2882,006.0943
467594147,-1224,0116,-1568,0025,-0001,0010,089.4533,052.0864,006.0260
467599817,-1201,0114,-1618,0021,-0003,0014,089.7576,051.8684,005.3436
467605562,-1226,0133,-1585,0022,-0002,0019,089.8581,053.5017,005.4390
467611311,-1227,0123,-1604,0025,-0004,0019,089.3173,051.9262,006.2878
467617051,-1224,0139,-1562,0022,-0005,0019,089.6755,052.5099,005.6485
467622827,-1230,0147,-1580,0026,-0003,0022,089.1397,051.6308,006.5864
467628566,-1242,0128,-1581,0026,-0002,0022,089.0487,051.9342,006.8520
467634323,-1249,0128,-1579,0027,0003,0019,089.5462,051.6609,005.7511
467640070,-1266,0128,-1588,0024,0002,0016,089.4721,051.4824,005.8670
467645840,-1234,0121,-1577,0023,0009,0014,089.5027,051.2664,005.7630
467651561,-1242,0117,-1598,0023,0008,0013,089.6573,051.9011,005.5775
467657325,-1249,0122,-1585,0021,0009,0013,089.7759,052.0347,005.3570
467663065,-1217,0100,-1610,0021,0011,0013,089.6113,051.5726,005.6102
467668873,-1216,0112,-1606,0017,0015,0008,090.2364,053.0226,004.5466
467674639,-1214,0113,-1608,0022,0016,0006,089.8426,052.7123,005.3615
467680385,-1208,0127,-1576,0019,0013,0009,089.8775,052.8429,005.3139
467686145,-1205,0110,-1574,0019,0016,0003,089.4762,052.3158,006.0896
467691910,-1207,0110,-1608,0019,0020,0001,089.9545,052.4656,005.1021
467697636,-1203,0115,-1563,0018,0019,-0001,089.9563,053.0688,005.2215
467703389,-1216,0114,-1580,0019,0020,-0003,089.7662,052.2109,005.4820
467709091,-1214,0129,-1577,0019,0015,-0006,089.8508,052.3059,005.3349
467714816,-1213,0144,-1587,0024,0020,-0007,089.4678,052.2479,006.1576
467720529,-1196,0141,-1610,0021,0015,-0003,089.1741,052.4362,006.8547
467726259,-1203,0136,-1598,0026,0009,-0006,089.3511,053.3132,006.6963
467731979,-1219,0151,-1578,0027,0007,-0003,089.4291,052.7846,006.4099
467737731,-1217,0151,-1565,0027,0009,0001,089.0067,052.0014,007.1474
467743407,-1233,0138,-1589,0023,0008,0008,089.0409,051.9038,007.0639
467749098,-1233,0129,-1573,0024,0004,0009,089.4221,052.0256,006.2970
467754784,-1207,0146,-1571,0026,0004,0010,089.5673,051.7157,005.9286
467760512,-1234,0133,-1551,0021,0003,0013,089.1201,052.3270,007.0256
467766270,-1216,0135,-1586,0024,0000,0008,089.4653,051.2079,006.0502
467771829,-1226,0115,-1571,0028,0003,0011,089.4512,052.4863,006.3688
467777569,-1226,0159,-1571,0027,0001,0007,089.9270,051.8247,005.2216
467783259,-1230,0108,-1588,0024,0005,0004,088.7512,051.7876,007.6829
467788938,-1226,0110,-1562,0023,0003,0000,090.2288,052.1682,004.6603
467794516,-1204,0100,-1577,0027,0001,-0002,089.9513,051.7155,005.1632
467800180,-1215,0123,-1578,0029,0004,-0001,090.2526,052.6365,004.6902
467805876,-1209,0111,-1576,0030,0000,-0001,089.6491,052.2083,005.9103
467811419,-1209,0117,-1587,0037,0003,0002,090.0106,052.4018,005.1738
467817098,-1230,0131,-1605,0038,0004,0004,089.8444,052.5878,005.5655
467822775,-1208,0129,-1598,0037,0006,0009,089.5577,052.3496,006.1323
467828447,-1204,0133,-1606,0035,0005,0007,089.6267,052.8060,006.0832
467834107,-1215,0140,-1605,0033,0012,0010,089.5361,052.9937,006.3271
467839885,-1204,0120,-1610,0029,0011,0005,089.3783,052.6461,006.6029
467845644,-1225,0140,-1599,0033,0013,0007,089.9014,053.1347,005.5494
467851414,-1200,0119,-1575,0033,0015,0001,089.3196,052.2591,006.6398
467857139,-1211,0104,-1606,0034,0012,-0001,089.8671,052.5940,005.5358
467862892,-1204,0113,-1565,0037,0012,0001,090.2262,052.9197,004.8061
467868611,-1203,0113,-1557,0039,0013,0002,089.8902,052.2432,005.4055
467874390,-1204,0102,-1625,0036,0015,0007,089.9063,052.1800,005.3547
467880110,-1200,0107,-1590,0036,0009,0002,090.2879,053.5309,004.7575
467885812,-1190,0100,-1591,0037,0003,0010,090.0547,052.7576,005.1294
467891500,-1183,0099,-1579,0035,0004,0011,090.2492,053.1459,004.7572
467897201,-1177,0091,-1591,0038,0003,0012,090.2254,053.0493,004.7792
467902926,-1200,0112,-1581,0036,-0003,0015,090.4280,053.4602,004.3737
467908701,-1203,0097,-1623,0037,-0002,0016,089.8681,052.5747,005.4454
467914423,-1177,0108,-1559,0035,-0005,0021,090.3620,053.4650,004.4888
467920163,-1199,0096,-1596,0036,-0001,0022,089.9406,052.7821,005.2909
467925911,-1211,0100,-1585,0038,-0008,0027,090.3204,053.0175,004.4693
467931625,-1200,0127,-1601,0037,-0007,0027,090.1361,052.4496,004.7525
467937397,-1216,0107,-1603,0038,-0012,0028,089.5034,053.0668,006.2463
467943149,-1227,0123,-1599,0035,-0006,0022,090.0852,052.6510,004.8612
467948878,-1246,0124,-1577,0032,-0005,0019,089.5990,052.3127,005.8357
467954694,-1238,0107,-1576,0027,-0003,0015,089.5944,051.4296,005.6611
467960407,-1248,0116,-1575,0027,-0006,0014,090.0265,051.7801,004.8360
467966164,-1254,0107,-1582,0025,-0001,0009,089.7331,051.4380,005.3750
467971836,-1249,0097,-1588,0032,-0002,0011,090.0124,051.4950,004.8119
467977579,-1272,0107,-1577,0024,0005,0012,090.2372,051.7570,004.3898
467983341,-1260,0098,-1589,0028,0007,0014,089.9307,050.9122,004.8600
467989070,-1256,0091,-1607,0026,0006,0015,090.2157,051.5771,004.3919
467994810,-1266,0091,-1586,0024,0006,0016,090.3736,051.9544,004.1144
468000551,-1257,0097,-1586,0024,0010,0017,090.3177,051.2496,004.1136
468006307,-1256,0100,-1580,0023,0015,0015,090.1672,051.5538,004.4570
468012030,-1261,0084,-1589,0019,0018,0013,090.0999,051.4124,004.5684
468017841,-1251,0105,-1592,0015,0017,0013,090.5311,051.5150,003.7069
468023679,-1234,0095,-1578,0014,0016,0006,089.9357,051.7743,004.9702
468029399,-1230,0122,-1543,0016,0020,0002,090.2619,051.9089,004.3224
468035151,-1224,0105,-1544,0013,0021,-0002,089.4852,051.2390,005.8045
468040910,-1203,0105,-1594,0019,0017,-0001,090.0110,051.5181,004.8033
468046675,-1200,0107,-1574,0020,0017,-0001,090.0437,053.0762,005.0181
468052394,-1208,0100,-1600,0016,0018,-0001,089.9625,052.5136,005.1037
468058108,-1207,0123,-1574,0024,0016,0003,090.1906,052.9000,004.6762
468063848,-1206,0115,-1570,0022,0016,0003,089.5542,052.3092,005.9534
468069672,-1232,0121,-1574,0018,0013,0006,089.8293,052.3469,005.3799
468075420,-1219,0107,-1571,0024,0012,0010,089.6488,051.7369,005.6415
468081179,-1212,0125,-1573,0024,0012,0008,090.0269,052.1298,004.9270
468086895,-1220,0135,-1579,0021,0009,0006,089.5309,052.2482,006.0106
468092597,-1211,0123,-1592,0021,0004,0010,089.3582,052.1188,006.3577
468098331,-1202,0139,-1573,0022,0001,0012,089.7125,052.6630,005.7164
468104073,-1219,0121,-1606,0023,0006,0011,089.2352,052.3978,006.7017
468109825,-1218,0119,-1561,0027,0003,0016,089.8065,052.6959,005.5222
468115546,-1213,0116,-1576,0030,0001,0020,089.6893,051.8119,005.5866
468121245,-1228,0111,-1568,0036,0002,0024,089.8000,052.3459,005.4451
468127002,-1224,0110,-1580,0035,-0005,0028,089.8872,051.7391,005.1280
468132719,-1220,0106,-1588,0035,0000,0028,089.9124,052.1732,005.1374
468138361,-1207,0103,-1589,0036,0002,0032,090.0096,052.3799,004.9458
468144131,-1214,0104,-1565,0037,0000,0032,090.0617,052.7186,004.8684
468149791,-1204,0099,-1598,0035,-0001,0033,089.9782,052.0290,004.9019
468155503,-1211,0107,-1563,0031,0000,0033,090.1538,053.0363,004.6748
468161159,-1205,0107,-1587,0035,0001,0030,089.8732,052.0364,005.0834
468166827,-1220,0124,-1588,0037,0002,0028,089.9311,052.7619,005.0731
468172579,-1215,0127,-1583,0035,-0002,0027,089.4924,052.2534,005.9064
468178344,-1213,0122,-1580,0034,-0001,0018,089.4680,052.3482,005.9740
468184085,-1226,0121,-1613,0033,0000,0016,089.5889,052.3389,005.7081
468189698,-1220,0112,-1576,0034,0002,0014,089.6551,052.6537,005.6247
468195477,-1200,0117,-1566,0031,0001,0008,089.8049,052.0590,005.1866
468201166,-1220,0118,-1606,0029,0003,0009,089.6435,052.4358,005.6044
468206821,-1213,0101,-1580,0026,0001,0009,089.7083,052.6682,005.5128
468212504,-1214,0113,-1603,0026,0000,0010,090.0722,052.3479,004.6654
468218099,-1236,0101,-1570,0027,0003,0009,089.7731,052.7824,005.3914
468223798,-1203,0118,-1580,0026,0002,0012,090.0492,051.5500,004.5817
468229553,-1217,0116,-1543,0025,0004,0012,089.5986,052.7243,005.7530
468235273,-1233,0103,-1551,0028,0008,0014,089.6402,051.5176,005.4203
468241029,-1228,0099,-1587,0027,0006,0017,089.9827,051.4018,004.6973
468246771,-1217,0112,-1599,0026,0006,0016,090.0994,052.2904,004.5966
468252638,-1228,0121,-1615,0027,0006,0014,089.7685,052.6571,005.3710
468258371,-1200,0120,-1581,0027,0004,0016,089.6299,052.6074,005.6604
468264134,-1195,0118,-1585,0023,0004,0017,089.6076,052.6651,005.7202
468269896,-1207,0120,-1616,0023,0002,0016,089.6673,052.8704,005.6309
468275641,-1205,0111,-1581,0020,0002,0016,089.6664,053.1348,005.6883
468281380,-1203,0101,-1603,0019,0008,0012,089.8257,052.4935,005.2133
468287148,-1213,0101,-1586,0016,0003,0013,090.0912,053.0907,004.7389
468292898,-1219,0119,-1600,0014,0002,0012,090.0241,052.4033,004.7681
468298629,-1221,0088,-1593,0020,-0002,0013,089.6126,052.5798,005.6912
468304362,-1193,0105,-1585,0014,-0001,0013,090.4259,052.4322,003.9100
468310136,-1190,0105,-1577,0017,-0002,0010,089.8813,052.9838,005.1883
468315879,-1213,0119,-1568,0017,-0001,0008,089.9427,052.8326,005.0286
468321624,-1205,0119,-1598,0017,0000,0009,089.5768,052.0524,005.6720
468327205,-1231,0126,-1592,0019,-0001,0006,089.6808,052.9362,005.6363
468332903,-1212,0125,-1594,0017,0001,0006,089.4912,052.0389,005.8704
468338536,-1229,0140,-1608,0019,0000,0004,089.5498,052.6718,005.8903
468344132,-1224,0129,-1589,0019,0001,0004,089.2208,052.3993,006.5590
468349809,-1223,0117,-1592,0021,0005,0001,089.4939,052.2138,005.9449
468355472,-1226,0118,-1576,0023,0005,-0001,089.7675,052.3524,005.3990
468361146,-1238,0117,-1606,0024,0007,0003,089.6813,051.9400,005.5074
468366806,-1221,0107,-1590,0023,0009,0003,089.7750,052.2818,005.3836
468372492,-1212,0128,-1589,0022,0012,0000,089.9878,052.3817,004.9549
468378103,-1203,0120,-1591,0027,0011,0003,089.4475,052.5246,006.1562
468383874,-1194,0138,-1573,0027,0009,0003,089.7226,052.8031,005.6208
468389526,-1195,0109,-1626,0028,0011,0005,089.2230,052.5951,006.6803
468395283,-1207,0118,-1590,0030,0008,0009,090.0817,053.7136,004.9829
468400948,-1199,0127,-1595,0033,0006,0008,089.6813,052.5337,005.6489
468406650,-1209,0121,-1605,0034,0004,0010,089.5182,052.9622,006.0983
468412360,-1214,0141,-1605,0030,0008,0013,089.7037,052.8569,005.6622
468418080,-1215,0118,-1581,0033,0003,0014,089.1937,052.6860,006.7485
468423820,-1201,0123,-1591,0032,0003,0014,089.7823,052.2708,005.3785
468429611,-1227,0120,-1586,0030,0005,0017,089.5881,052.8881,005.9227
468435345,-1224,0133,-1599,0034,0005,0016,089.6811,052.0359,005.5385
468441126,-1219,0121,-1563,0029,0007,0016,089.3656,052.4545,006.3013
468446882,-1209,0145,-1583,0029,0008,0017,089.6358,051.8428,005.5933
468452643,-1220,0107,-1577,0031,0007,0016,089.0337,052.5172,007.0327
468458372,-1240,0111,-1550,0028,0007,0017,090.0592,052.1129,004.7416
468464139,-1214,0114,-1565,0027,0008,0016,089.7652,051.1152,005.1610
468469870,-1219,0099,-1594,0029,0009,0018,089.7499,052.1969,005.3921
468475631,-1227,0116,-1581,0028,0009,0015,090.1783,052.5439,004.5295
468481354,-1217,0115,-1567,0026,0011,0015,089.6644,051.9921,005.5193
468487175,-1220,0096,-1579,0028,0010,0014,089.7345,052.0457,005.3802
468492910,-1212,0112,-1586,0027,0006,0017,090.2240,052.2433,004.3721
468498705,-1212,0108,-1581,0027,0009,0018,089.7515,052.5318,005.4280
468504444,-1220,0114,-1579,0028,0007,0015,089.9145,052.3960,005.0456
468510159,-1234,0111,-1577,0020,0007,0017,089.7341,052.1545,005.3832
468515898,-1234,0107,-1592,0024,0008,0015,089.8322,051.7966,005.1077
468521630,-1250,0112,-1578,0019,0011,0015,089.9437,052.1571,004.9388
468527407,-1245,0110,-1603,0023,0011,0014,089.7771,051.4104,005.1467
468533206,-1244,0117,-1581,0022,0011,0015,089.8944,052.1485,005.0376
468539005,-1238,0109,-1577,0020,0013,0017,089.6589,051.6091,005.4261
468544801,-1241,0121,-1562,0013,0014,0014,089.8944,051.7802,004.9771
468550614,-1244,0109,-1574,0012,0018,0011,089.5206,051.3405,005.6671
468556423,-1249,0095,-1602,0012,0019,0009,089.9226,051.6085,004.9081
468562143,-1229,0095,-1610,0011,0017,0010,090.2589,052.0239,004.2842
468567931,-1224,0086,-1585,0006,0024,0008,090.2301,052.6417,004.4494
468573591,-1231,0081,-1566,0007,0028,0005,090.4248,052.2094,003.9728
468579263,-1214,0092,-1580,0003,0025,0005,090.5025,051.7192,003.7490
468584912,-1203,0084,-1566,0004,0027,0005,090.2400,052.4710,004.4185
468590613,-1193,0095,-1594,0005,0029,0002,090.4535,052.3976,003.9591
468596293,-1201,0096,-1596,0007,0026,0001,090.2044,053.1957,004.6387
468601974,-1188,0087,-1586,0003,0020,0001,090.2207,052.9177,004.5687
468607601,-1178,0119,-1608,0007,0018,0000,090.4248,053.1076,004.1555
468613183,-1195,0127,-1582,0009,0018,0000,089.6844,053.6946,005.9638
468618784,-1185,0131,-1599,0013,0014,0003,089.5433,052.6951,006.0783
468624581,-1201,0109,-1569,0012,0009,0001,089.5008,053.3805,006.3476
468630264,-1190,0130,-1558,0011,0009,0001,089.9820,052.3647,005.0854
468635968,-1219,0146,-1582,0011,0003,0001,089.4206,052.4642,006.3320
468641655,-1206,0137,-1599,0012,0001,-0001,089.1329,052.1420,006.8967
468647326,-1225,0116,-1573,0015,0004,-0006,089.4440,052.8823,006.4210
468652983,-1227,0118,-1590,0014,-0003,-0007,089.8755,051.8496,005.2922
468658677,-1228,0112,-1583,0014,0001,-0008,089.8143,052.2572,005.5181
468664365,-1224,0109,-1565,0017,0004,-0009,089.9690,052.0535,005.1666
468670040,-1233,0097,-1564,0015,0004,-0006,089.9984,051.8323,005.0778
468675682,-1217,0131,-1591,0018,0009,-0006,090.3020,051.6390,004.4277
468681419,-1241,0117,-1586,0018,0006,-0005,089.4546,052.5396,006.4070
468687119,-1209,0107,-1588,0016,0005,-0006,089.9231,051.7422,005.2609
468692832,-1231,0122,-1554,0017,0008,-0001,090.1246,052.7341,005.0255
468698565,-1230,0115,-1587,0020,0010,-0001,089.6680,051.3374,005.7251
468704247,-1227,0121,-1566,0019,0011,0001,089.9667,052.2039,005.2862
468710008,-1201,0125,-1593,0024,0005,0006,089.7368,051.7232,005.6765
468715655,-1217,0133,-1587,0019,0009,0011,089.7206,052.9894,005.9830
468721411,-1226,0120,-1581,0023,0006,0010,089.5158,052.2571,006.2724
468727109,-1233,0118,-1593,0020,0006,0015,089.8574,052.0454,005.5024
468732794,-1221,0114,-1575,0023,0003,0016,089.8823,052.1380,005.4645
468738556,-1217,0137,-1590,0022,0004,0019,089.9432,052.0830,005.3193
468744329,-1219,0125,-1599,0024,0006,0019,089.3800,052.4369,006.5979
468750036,-1204,0133,-1577,0026,0004,0022,089.7749,052.5422,005.7585
468755813,-1205,0119,-1600,0023,0004,0017,089.4797,052.4556,006.3799
468761564,-1226,0122,-1593,0025,0002,0013,089.9154,052.9391,005.5273
468767300,-1203,0116,-1614,0020,0005,0009,089.7652,052.1884,005.7043
468772956,-1217,0124,-1581,0022,0003,0008,089.9705,053.2975,005.4809
468778633,-1203,0116,-1591,0022,0005,0006,089.6922,052.1372,005.8571
468784321,-1213,0112,-1581,0018,0005,0004,089.9487,052.8629,005.4580
468790017,-1205,0110,-1588,0017,0003,0001,089.9986,052.3186,005.2520
468795712,-1221,0127,-1575,0019,0004,0000,090.0586,052.7388,005.2090
468801311,-1218,0126,-1576,0022,0004,0001,089.6172,051.9878,006.0125
468806995,-1218,0128,-1580,0020,0007,0003,089.6977,052.1708,005.8911
468812665,-1216,0128,-1604,0025,0004,0004,089.6497,052.2202,006.0103
468818329,-1215,0114,-1576,0027,0005,0009,089.7041,052.7357,006.0065
468824023,-1224,0130,-1566,0027,0006,0007,089.9887,052.1839,005.2794
468829706,-1211,0141,-1611,0028,0003,0007,089.5356,051.7841,006.1515
468835355,-1206,0122,-1594,0030,0008,0008,089.4159,053.0204,006.7025
468841016,-1204,0139,-1569,0035,0008,0009,089.8564,052.7099,005.6529
468846698,-1214,0132,-1579,0035,0008,0010,089.3398,052.2702,006.6750
468852395,-1214,0133,-1585,0031,0004,0012,089.5901,052.2785,006.1400
468858113,-1197,0134,-1575,0034,0005,0017,089.5414,052.3955,006.2656
468863892,-1184,0140,-1612,0032,0004,0016,089.5006,052.6128,006.4010
468869643,-1195,0132,-1582,0033,0004,0019,089.4336,053.6490,006.7972
468875413,-1208,0126,-1589,0034,0006,0021,089.5703,052.6539,006.2432
468881146,-1216,0120,-1599,0035,0005,0025,089.7097,052.5955,005.9125
468886868,-1223,0135,-1588,0035,0004,0023,089.8496,052.6110,005.5970
468892622,-1199,0113,-1586,0034,0005,0025,089.4284,052.1710,006.3979
468898360,-1219,0113,-1583,0036,0008,0023,090.0237,052.8706,005.2393
468904125,-1206,0108,-1620,0036,0008,0022,089.9274,052.1935,005.3026
468909897,-1226,0112,-1574,0038,0009,0021,090.1202,053.3783,005.0851
468915656,-1218,0119,-1617,0034,0010,0017,089.9080,051.7782,005.2345
468921434,-1203,0119,-1595,0036,0008,0014,089.8361,053.0429,005.6290
468927154,-1204,0122,-1576,0040,0011,0012,089.8036,052.8100,005.6445
468932920,-1182,0114,-1559,0033,0011,0010,089.6960,052.4355,005.7991
468938687,-1209,0111,-1568,0030,0010,0012,089.8679,052.7237,005.4810
468944418,-1194,0114,-1592,0030,0004,0009,089.9416,052.1908,005.2157
468950109,-1202,0092,-1620,0030,0000,0011,089.8983,053.1082,005.4835
468955683,-1213,0098,-1556,0032,0000,0012,090.4586,053.3628,004.2550
468961304,-1195,0116,-1585,0029,0000,0015,090.1629,051.8672,004.6422
468966959,-1215,0113,-1591,0030,-0005,0014,089.7839,052.9673,005.6547
468972689,-1207,0123,-1571,0026,-0005,0015,089.9110,052.4408,005.2670
468978422,-1226,0116,-1601,0025,-0005,0015,089.6088,052.2979,005.8850
468984135,-1221,0107,-1586,0030,-0002,0015,089.8738,052.4424,005.3395
468989845,-1252,0124,-1589,0028,-0004,0014,090.0326,052.2744,004.9615
468995591,-1214,0127,-1589,0025,-0001,0012,089.5905,051.5389,005.7423
469001283,-1237,0137,-1595,0024,-0001,0010,089.5738,052.5978,006.0060
469006985,-1253,0115,-1566,0028,0004,0009,089.3472,051.9616,006.3544
469012667,-1236,0108,-1573,0026,0005,0010,089.8713,051.1210,005.1087
469018371,-1232,0122,-1580,0027,0007,0009,089.9985,051.8199,004.9746
469024069,-1219,0120,-1567,0026,0007,0013,089.6365,051.9277,005.7485
469029827,-1220,0127,-1556,0025,0008,0010,089.7122,051.9893,005.6046
469035552,-1207,0117,-1613,0027,0008,0013,089.5060,051.7207,005.9797
469041327,-1211,0098,-1558,0026,0007,0012,089.8930,053.2729,005.4631
469047048,-1213,0118,-1582,0029,0006,0013,090.1976,051.9369,004.5517
469052829,-1195,0118,-1599,0028,0002,0012,089.6933,052.4537,005.7133
469058565,-1194,0130,-1569,0029,0000,0013,089.7998,053.1853,005.6258
469064221,-1208,0113,-1589,0031,-0001,0014,089.4458,052.5062,006.2600
469069937,-1219,0117,-1592,0034,0001,0008,089.9424,052.6479,005.2062
469075624,-1224,0116,-1563,0030,-0001,0011,089.7755,052.3958,005.5149
469081349,-1224,0149,-1613,0027,0000,0010,089.7680,051.7336,005.3998
469086974,-1221,0115,-1585,0030,0005,0011,089.0664,052.6996,007.1216
469092700,-1226,0105,-1600,0030,0004,0014,089.9283,052.2020,005.1421
469098404,-1223,0107,-1587,0034,0009,0014,090.0787,052.4653,004.8584
469104161,-1209,0103,-1582,0031,0006,0016,089.9804,052.2425,005.0190
469109919,-1244,0100,-1586,0030,0004,0019,090.0799,052.5450,004.8480
469115608,-1220,0092,-1617,0030,0005,0018,090.1404,051.7069,004.5661
469121312,-1214,0123,-1585,0028,0005,0016,090.3705,053.0443,004.2766
469127057,-1228,0114,-1595,0031,0005,0018,089.5160,052.3119,005.9953
469132832,-1242,0106,-1575,0031,0004,0013,089.8825,052.2787,005.2008
469138559,-1214,0112,-1593,0030,0004,0011,089.9934,051.5496,004.8328
469144300,-1223,0126,-1567,0027,0002,0007,089.8564,052.7252,005.3380
469150007,-1227,0110,-1603,0025,0005,0004,089.4859,051.7767,005.9420
469155688,-1220,0108,-1600,0026,0006,0002,089.9993,052.5407,005.0095
469161380,-1220,0130,-1586,0024,0004,0002,089.9789,052.5640,005.0617
469167044,-1201,0106,-1591,0020,0002,-0002,089.4210,052.2308,006.2077
469172727,-1209,0099,-1590,0022,0006,-0001,090.1002,052.9225,004.8790
469178476,-1237,0112,-1614,0026,0006,0003,090.1812,052.6154,004.6483
469184189,-1224,0093,-1578,0023,0003,0006,089.8916,052.3900,005.2342
469189847,-1239,0090,-1583,0024,0007,0010,090.3366,052.0811,004.2325
469195534,-1250,0100,-1589,0022,0009,0012,090.3578,051.8466,004.1463
469201206,-1237,0097,-1598,0021,0010,0014,090.1107,051.7017,004.6276
469206970,-1239,0109,-1600,0027,0009,0018,090.2256,052.2356,004.4642
469212742,-1220,0107,-1604,0020,0010,0014,089.9106,052.1225,005.1085
469218488,-1226,0097,-1603,0019,0012,0014,090.0094,052.7089,005.0024
469224227,-1226,0150,-1588,0024,0014,0006,090.2414,052.4749,004.4586
469229931,-1218,0129,-1591,0022,0012,0004,088.8788,052.0717,007.3002
469235667,-1221,0148,-1600,0021,0013,0001,089.5995,052.4552,005.8592
469241471,-1215,0133,-1596,0020,0009,0000,089.0498,052.4443,007.0673
469247049,-1224,0142,-1561,0017,0012,-0005,089.4923,052.5629,006.1538
469252781,-1229,0126,-1583,0019,0004,-0002,089.1544,051.6068,006.6685
469258488,-1236,0114,-1594,0020,0006,0000,089.6584,052.0838,005.7353
469264050,-1226,0114,-1618,0020,0001,0000,089.9067,052.0857,005.2203
469269608,-1231,0110,-1586,0024,0002,0001,089.9260,052.7861,005.3176
469275301,-1244,0118,-1600,0027,0002,0005,089.9677,051.9765,005.0765
469280998,-1229,0109,-1624,0027,0001,0005,089.7903,052.0076,005.4564
469286661,-1240,0125,-1605,0026,0001,0009,090.0671,052.8572,005.0200
469292303,-1240,0104,-1604,0028,0000,0011,089.6222,052.0925,005.8285
469297959,-1256,0126,-1594,0029,0005,0011,090.1755,052.2023,004.6731
469303741,-1230,0121,-1610,0027,0010,0012,089.5434,051.5443,005.8635
469309519,-1234,0125,-1608,0029,0012,0014,089.7820,052.6250,005.5802
469315278,-1213,0120,-1613,0026,0011,0015,089.6449,052.3172,005.8115
469321071,-1204,0130,-1598,0026,0011,0011,089.7967,053.0112,005.6241
469326890,-1206,0115,-1581,0022,0010,0011,089.4982,052.8139,006.2492
469332698,-1223,0122,-1604,0026,0012,0006,089.8900,052.4953,005.3297
469338453,-1217,0111,-1604,0027,0008,0005,089.7044,052.5404,005.7441
469344158,-1207,0123,-1627,0030,0008,0005,089.9997,052.7135,005.1350
469349856,-1226,0129,-1614,0029,-0001,0007,089.7132,053.3540,005.9032
469355541,-1219,0122,-1631,0029,-0001,0006,089.5861,052.5391,006.0130
469361210,-1241,0136,-1629,0033,-0010,0008,089.7966,053.1413,005.6736
469366958,-1248,0135,-1640,0036,-0013,0010,089.4391,052.4542,006.3102
469372738,-1266,0120,-1605,0033,-0008,0008,089.5251,052.5720,006.1513
469378438,-1262,0132,-1627,0034,-0006,0015,089.8025,051.5025,005.3380
469384154,-1263,0138,-1607,0030,-0006,0015,089.5221,052.1001,006.0401
469389843,-1249,0130,-1625,0029,-0001,0018,089.3669,051.6170,006.2558
469395581,-1254,0121,-1610,0026,0002,0015,089.6138,052.3816,005.9037
469401317,-1272,0107,-1635,0025,0011,0016,089.7719,051.9043,005.4683
469407124,-1248,0114,-1650,0021,0013,0011,090.1337,052.0304,004.7335
469412965,-1231,0122,-1654,0017,0013,0009,089.9490,052.8788,005.2876
469418738,-1223,0121,-1652,0016,0015,0001,089.8002,053.2438,005.7049
469424456,-1227,0118,-1666,0011,0014,-0003,089.8448,053.3629,005.6461
469430220,-1214,0111,-1675,0007,0017,-0005,089.9402,053.5164,005.4798
469435927,-1221,0101,-1678,0005,0007,-0005,090.1078,053.9920,005.2019
469441572,-1215,0091,-1693,0008,0003,-0003,090.3184,053.8485,004.6938
469447184,-1202,0084,-1697,0001,-0003,0001,090.5358,054.2796,004.2608
469452799,-1221,0066,-1701,-0002,-0008,0008,090.6719,054.6392,003.9897
469458424,-1188,0055,-1723,-0007,-0007,0011,091.0387,054.2562,003.0546
469464082,-1195,0062,-1749,-0019,-0007,0016,091.2570,055.4695,002.6417
469469846,-1195,0086,-1726,-0031,-0009,0020,091.1121,055.6211,003.0307
469475544,-1191,0051,-1740,-0043,-0009,0022,090.6226,055.1928,004.2360
469481271,-1192,0039,-1775,-0052,-0010,0024,091.3813,055.6019,002.3579
469487026,-1191,0022,-1775,-0063,-0011,0029,091.5733,056.1220,001.9009
469492825,-1205,0027,-1804,-0068,-0013,0026,091.8903,056.1218,001.0611
469498634,-1176,0037,-1799,-0077,-0009,0023,091.7851,056.2465,001.3598
469504416,-1200,0008,-1812,-0092,-0009,0017,091.6106,056.8375,001.9032
469510090,-1196,0012,-1784,-0101,-0015,0011,092.1508,056.4654,000.4317
469515882,-1218,-0018,-1787,-0120,-0026,0007,092.0777,056.1250,000.6675
469521649,-1212,-0014,-1829,-0129,-0039,0010,092.6602,055.6800,-000.8175
469527423,-1202,-0027,-1816,-0131,-0030,0013,092.5714,056.4705,-000.5628
469533223,-1188,-0015,-1819,-0123,-0018,0016,092.8243,056.4805,-001.2231
469538995,-1172,-0021,-1845,-0125,-0007,0013,092.6094,056.8550,-000.6107
469544721,-1120,-0011,-1854,-0152,-0021,0005,092.7338,057.5744,-000.9292
469550514,-1082,-0035,-1879,-0187,-0035,-0008,092.5838,058.9162,-000.4081
469556238,-1060,-0015,-1918,-0211,-0037,-0010,093.0084,060.0795,-001.7600
469561983,-1019,-0042,-1900,-0217,-0035,-0018,092.7153,061.0763,-000.6238
469567758,-1006,-0060,-1851,-0220,-0037,-0022,093.1749,061.7950,-002.2901
469573532,-0989,-0027,-1873,-0234,-0060,-0041,093.4979,061.3787,-003.3335
469579301,-0973,-0035,-1873,-0261,-0086,-0069,093.0017,062.1827,-001.2269
469585057,-0936,-0031,-1878,-0286,-0092,-0096,093.2399,062.5233,-001.9328
469590813,-0932,-0038,-1890,-0306,-0101,-0129,093.2497,063.5474,-001.6840
469596658,-0913,-0025,-1893,-0321,-0107,-0152,093.4519,063.7064,-002.1806
469602458,-0885,-0057,-1907,-0331,-0119,-0177,093.3560,064.2467,-001.2853
469608298,-0891,-0031,-1936,-0334,-0137,-0196,093.9405,065.0910,-003.7192
469614146,-0875,-0031,-1903,-0328,-0152,-0205,093.6400,065.2268,-001.6219
469619971,-0891,0020,-1873,-0322,-0173,-0204,093.7931,065.2292,-001.8505
469625793,-0926,0077,-1813,-0311,-0195,-0210,093.1677,064.3892,001.8169
469631618,-0973,0148,-1834,-0299,-0212,-0210,092.4521,062.5656,005.2586
469637503,-1011,0174,-1802,-0289,-0229,-0210,091.5453,061.5681,009.1530
469643399,-1063,0247,-1753,-0280,-0237,-0216,091.3066,060.0792,009.9305
469649241,-1118,0288,-1749,-0263,-0236,-0222,090.0693,057.7550,013.4560
469655181,-1154,0334,-1726,-0241,-0245,-0225,089.5729,056.3074,014.5792
469661080,-1231,0370,-1693,-0221,-0249,-0219,088.8073,054.9134,016.2986
469667007,-1257,0419,-1650,-0185,-0235,-0203,088.1723,052.5025,016.7481
469672936,-1310,0427,-1616,-0139,-0225,-0172,087.0930,050.9974,018.5596
469678853,-1335,0444,-1594,-0091,-0217,-0123,086.9197,049.3205,017.9783
469684752,-1358,0461,-1569,-0053,-0222,-0075,086.4692,048.3989,018.3981
469690626,-1361,0459,-1564,-0020,-0220,-0023,085.9792,047.4061,018.7520
469696452,-1349,0456,-1511,0015,-0216,0032,086.0349,047.3483,018.6085
469702390,-1321,0446,-1450,0040,-0204,0079,085.6890,046.5287,018.6773
469708254,-1270,0408,-1455,0053,-0194,0116,085.4693,045.9797,018.6564
469714159,-1220,0366,-1459,0062,-0193,0140,086.5277,047.6329,017.6909
469720067,-1172,0314,-1451,0070,-0188,0150,087.4185,048.9053,016.6274
469725925,-1152,0257,-1451,0093,-0191,0163,088.4539,050.0179,015.0117
469731817,-1135,0226,-1417,0116,-0202,0168,089.6776,050.7648,012.6632