Time Stamp,Accel x,Accel y,Accel z,Gyro x,Gyro y,Gyro z,Yaw (Deg),Pitch (Deg),Roll (Deg)
577822878,-1800,0216,-0877,0028,0007,0001,090.4386,026.6904,006.7584
577828532,-1808,0206,-0858,0028,0005,0001,089.7856,025.7152,006.8476
577834197,-1788,0204,-0871,0028,-0001,0005,090.1977,025.1851,006.4546
577839887,-1775,0207,-0907,0030,-0004,0008,090.4659,025.9155,006.5139
577845510,-1781,0211,-0855,0034,0004,0009,090.7512,027.0412,006.6670
577851164,-1789,0209,-0874,0034,0000,0010,089.7182,025.3392,006.7624
577856758,-1791,0209,-0859,0032,-0001,0013,090.2331,025.9497,006.6501
577862487,-1783,0214,-0857,0032,-0003,0016,089.9308,025.4049,006.6569
577868228,-1775,0225,-0865,0030,-0002,0014,089.6182,025.5237,006.8684
577873921,-1801,0239,-0847,0024,0002,0013,089.0972,025.8343,007.2677
577879620,-1788,0233,-0874,0020,-0005,0013,087.9634,024.8820,007.5980
577885330,-1802,0201,-0857,0015,-0004,0008,088.9784,026.0016,007.3989
577890966,-1816,0224,-0873,0007,0001,0003,090.5832,025.2137,006.2448
577896598,-1809,0216,-0884,0006,0000,0000,089.2087,025.5371,007.1207
577901974,-1790,0203,-0880,0007,0004,-0003,089.9962,025.9050,006.7868
577907557,-1800,0195,-0865,0009,0006,0002,090.6857,026.0501,006.4330
577913134,-1810,0197,-0860,0009,0004,-0001,090.8971,025.4811,006.1542
577918710,-1812,0213,-0870,0020,0006,0001,090.6790,025.2633,006.2143
577924344,-1808,0219,-0877,0020,0007,0001,089.8458,025.5221,006.7585
577929983,-1794,0201,-0895,0023,0005,0005,089.6770,025.7358,006.9215
577935650,-1789,0206,-0886,0028,0002,0005,091.0686,026.4532,006.3204
577941301,-1778,0207,-0862,0029,0005,0003,090.4564,026.1660,006.5950
577946950,-1786,0205,-0894,0029,0004,0006,090.1164,025.6670,006.6422
577952615,-1770,0248,-0892,0030,0004,0007,090.7431,026.5460,006.5319
577958265,-1761,0233,-0865,0028,0007,0004,088.0365,026.5205,008.1573
577963940,-1776,0232,-0868,0027,0008,0007,088.8201,025.9165,007.4803
577969595,-1787,0232,-0847,0021,0001,0008,088.8592,025.8477,007.4372
577975271,-1788,0216,-0877,0022,0006,0009,088.5064,025.0989,007.3920
577980934,-1800,0230,-0893,0020,0002,0013,090.0536,026.0818,006.8198
577986619,-1761,0251,-0884,0021,-0001,0011,089.2429,026.2154,007.3401
577992295,-1777,0219,-0892,0018,-0003,0011,087.9519,026.4468,008.2018
577998059,-1775,0227,-0847,0023,0001,0009,090.2186,026.4862,006.8477
578003722,-1789,0237,-0877,0025,-0002,0007,088.7095,025.2234,007.3248
578009348,-1774,0215,-0886,0026,-0003,0006,088.7383,026.0048,007.5723
578015056,-1797,0224,-0906,0025,-0004,0007,090.2335,026.4189,006.8188
578020721,-1784,0217,-0885,0024,-0008,0002,089.7928,026.5936,007.1359
578026353,-1798,0215,-0884,0020,-0010,0006,089.9528,026.1669,006.9093
578032053,-1794,0204,-0859,0021,-0012,0005,090.0426,025.9954,006.8048
578037776,-1797,0207,-0850,0021,-0009,0009,090.3452,025.3612,006.4430
578043441,-1806,0215,-0892,0024,-0011,0012,089.9655,025.1383,006.5874
578049194,-1784,0228,-0859,0026,-0009,0014,090.1496,026.2630,006.8186
578054920,-1815,0213,-0880,0031,-0006,0014,088.7941,025.4326,007.3414
578060671,-1791,0216,-0883,0031,-0004,0015,090.2492,025.7476,006.6057
578066397,-1815,0233,-0878,0033,-0001,0017,089.9046,026.1270,006.9162
578072127,-1814,0232,-0894,0032,0002,0016,088.8243,025.5699,007.3652
578077843,-1804,0208,-0852,0029,0005,0014,089.2780,026.1133,007.2786
578083591,-1778,0219,-0855,0025,0008,0010,090.0722,025.0029,006.4816
578089268,-1807,0227,-0860,0019,0008,0012,089.3120,025.5738,007.0856
578094964,-1813,0225,-0870,0016,0011,0011,088.9788,025.2416,007.1711
578100737,-1791,0219,-0864,0011,0009,0016,089.3171,025.4976,007.0650
578106443,-1772,0222,-0876,0005,0010,0011,089.5634,025.6014,006.9616
578112180,-1782,0214,-0858,0010,0008,0012,089.5391,026.2005,007.1680
578117883,-1769,0205,-0836,0011,0010,0017,089.7607,025.4761,006.8155
578123648,-1795,0213,-0850,0015,0009,0012,089.9659,025.1178,006.5929
578129312,-1786,0225,-0852,0021,0008,0013,089.6531,025.1948,006.7910
578135029,-1784,0203,-0890,0019,0005,0014,088.9575,025.3459,007.2332
578140762,-1777,0218,-0858,0021,0002,0014,091.0446,026.5210,006.3793
578146523,-1778,0216,-0834,0021,-0002,0014,089.3268,025.4933,007.0686
578152243,-1782,0241,-0887,0017,0001,0013,089.2773,024.9155,006.9145
578158024,-1801,0212,-0877,0019,0000,0011,088.5844,026.4771,007.8360
578163627,-1786,0231,-0853,0015,-0003,0011,090.2851,025.7356,006.5979
578169360,-1799,0201,-0888,0014,-0002,0014,088.5076,025.2902,007.4739
578175069,-1776,0219,-0863,0007,-0002,0007,091.1911,026.2427,006.2240
578180694,-1795,0215,-0873,0006,-0005,0009,089.3801,025.6927,007.1119
578186307,-1808,0214,-0855,0002,-0002,0009,089.9782,025.7825,006.7997
578192019,-1803,0212,-0868,0006,-0003,0007,089.6954,025.0705,006.7452
578197596,-1789,0201,-0868,0009,-0003,0007,090.0657,025.6047,006.7026
578203163,-1775,0233,-0877,0010,0001,0007,090.7147,025.7548,006.3785
578208794,-1776,0212,-0855,0008,0000,0007,088.8080,026.1380,007.6119
578214294,-1784,0202,-0881,0012,0003,0008,089.9391,025.5095,006.7556
578220015,-1779,0223,-0880,0012,0003,0008,090.8988,026.2299,006.4165
578225664,-1789,0219,-0864,0015,0002,0006,089.4539,026.1304,007.2357
578231316,-1781,0221,-0895,0016,0003,0008,089.6353,025.5471,006.9477
578237010,-1790,0228,-0871,0015,0005,0010,089.9735,026.6441,007.0931
578242691,-1796,0225,-0876,0013,0006,0010,089.1256,025.6554,007.2813
578248380,-1800,0212,-0869,0015,0008,0007,089.5139,025.8493,007.1220
578254007,-1821,0221,-0846,0012,0010,0012,090.1603,025.5905,006.6724
578259752,-1811,0216,-0878,0014,0007,0007,089.1403,024.6510,006.9518
578265406,-1823,0216,-0869,0017,0005,0009,090.1045,025.8388,006.7829
578271099,-1811,0219,-0870,0021,0007,0008,089.8543,025.2739,006.7535
578276757,-1810,0233,-0876,0023,0005,0008,089.7134,025.5251,006.9112
578282424,-1802,0234,-0855,0027,0002,0010,088.9613,025.6553,007.3855
578288105,-1785,0242,-0845,0031,0001,0012,088.6358,025.1389,007.3993
578293813,-1799,0241,-0870,0033,0003,0009,088.0010,025.1302,007.7581
578299458,-1775,0231,-0870,0034,0006,0012,088.5821,025.6709,007.6124
578305166,-1774,0215,-0894,0034,0007,0013,089.1274,025.9553,007.3885
578310905,-1787,0214,-0863,0034,0009,0014,090.4304,026.6738,006.8375
578316625,-1783,0221,-0876,0032,0014,0016,089.8248,025.4875,006.8282
578322423,-1779,0210,-0883,0036,0011,0013,089.6640,026.0785,007.1029
578328205,-1801,0198,-0856,0037,0009,0020,090.4801,026.2671,006.6766
578333901,-1800,0219,-0861,0036,0006,0017,090.7085,025.1643,006.2228
578339609,-1779,0194,-0871,0037,0003,0018,089.3913,025.4330,007.0377
578345332,-1776,0202,-0840,0038,0000,0014,091.3012,026.0198,006.1144
578350982,-1791,0207,-0859,0042,-0002,0015,090.1117,025.0998,006.5172
578356696,-1763,0205,-0871,0039,-0005,0014,090.1795,025.5256,006.6015
578362434,-1778,0213,-0870,0038,-0007,0014,090.4635,026.2050,006.6340
578368172,-1783,0215,-0865,0032,-0003,0015,089.9041,025.8721,006.8565
578373861,-1789,0221,-0853,0028,-0004,0019,089.7654,025.6955,006.8801
578379545,-1788,0178,-0888,0025,-0004,0018,089.2080,025.2746,007.0644
578385266,-1782,0221,-0880,0021,0002,0016,092.5477,026.4490,005.4805
578391025,-1815,0226,-0853,0021,0004,0016,089.2199,026.0556,007.3106
578396749,-1807,0209,-0876,0019,0002,0015,088.9638,024.8706,007.0737
578402455,-1802,0229,-0855,0022,0000,0014,090.4458,025.8276,006.5333
578408108,-1820,0226,-0853,0022,0003,0013,088.6627,025.1291,007.3294
578413845,-1803,0215,-0860,0029,0000,0011,089.0492,024.9176,007.0442
578419467,-1816,0217,-0881,0029,-0004,0007,089.8105,025.3927,006.7673
578425161,-1806,0213,-0871,0033,0002,0006,089.9196,025.7607,006.8160
578430805,-1804,0222,-0858,0034,0000,0007,089.9970,025.5718,006.7121
578436377,-1799,0221,-0890,0035,0003,0005,089.2257,025.2374,007.0433
578442015,-1803,0222,-0865,0035,0002,0004,089.8707,026.2659,006.9933
578447666,-1814,0214,-0885,0033,0002,0006,089.3391,025.3680,007.0185
578453335,-1814,0222,-0845,0034,0006,0006,090.2037,025.9100,006.6891
578458998,-1800,0219,-0911,0030,0007,0003,088.9657,024.6886,007.0060
578464604,-1792,0201,-0848,0025,0004,0007,090.3069,026.9155,006.9265
578470236,-1804,0235,-0875,0020,0001,0008,090.3348,025.0141,006.3481
578475852,-1787,0216,-0870,0015,-0001,0012,088.6273,025.7639,007.5532
578481533,-1779,0210,-0869,0016,0004,0010,089.9422,025.7998,006.8044
578487237,-1782,0213,-0856,0020,0008,0012,090.1287,025.8898,006.7242
578492953,-1766,0214,-0843,0020,0007,0008,089.7190,025.4536,006.8265
578498618,-1790,0230,-0866,0021,0008,0010,089.5056,025.3490,006.9159
578504333,-1782,0219,-0859,0022,0007,0006,088.8843,025.6767,007.3793
578510027,-1794,0218,-0835,0024,0004,0008,089.5475,025.5554,006.9599
578515665,-1763,0219,-0875,0020,0002,0009,089.1394,024.7178,006.9247
578521299,-1783,0225,-0880,0017,-0001,0011,089.7570,026.3791,007.0989
578527017,-1783,0223,-0894,0014,-0003,0012,089.3991,026.0457,007.2072
578532712,-1790,0216,-0851,0017,-0006,0010,089.7954,026.5037,007.1186
578538399,-1802,0229,-0864,0018,-0006,0016,089.5024,025.1200,006.8560
578544135,-1799,0221,-0880,0017,-0004,0017,088.9225,025.4799,007.3015
578549871,-1812,0224,-0852,0016,-0003,0015,089.7722,025.9531,006.9638
578555607,-1812,0211,-0898,0016,0001,0017,089.0107,024.8920,007.0615
578561348,-1790,0221,-0877,0023,0003,0016,090.6482,026.3920,006.5848
578567063,-1806,0221,-0852,0026,0008,0013,089.4956,025.8703,007.1003
578572793,-1840,0213,-0865,0027,0009,0013,089.2497,024.9902,006.9603
578578530,-1804,0224,-0873,0031,0007,0009,090.0010,025.0385,006.5579
578584219,-1804,0227,-0875,0033,0006,0004,089.3451,025.7356,007.1438
578589850,-1788,0216,-0884,0030,0004,0005,089.2749,025.6947,007.1715
578595502,-1804,0212,-0853,0025,0002,0005,090.1018,026.2015,006.8484
578601159,-1807,0227,-0883,0025,0003,0005,089.7678,025.0309,006.6826
578606805,-1792,0223,-0874,0023,0000,0008,089.3445,025.9674,007.2181
578612375,-1781,0220,-0874,0021,0002,0010,089.4980,025.8104,007.0798
578618075,-1796,0195,-0862,0022,0008,0013,089.6689,025.9904,007.0378
578623806,-1765,0221,-0880,0021,0006,0009,091.0639,025.4413,006.0793
578629487,-1773,0211,-0880,0019,0010,0011,089.5206,026.4294,007.2650
578635243,-1786,0238,-0857,0022,0010,0013,090.3195,026.2135,006.7245
578641016,-1787,0225,-0826,0024,0006,0011,088.1276,025.3286,007.7115
578646686,-1783,0214,-0878,0023,0005,0015,088.7145,024.5701,007.1267
578652361,-1795,0230,-0856,0024,0004,0014,090.2298,026.2713,006.8034
578658060,-1783,0222,-0871,0021,0004,0014,088.6578,025.1891,007.3681
578663769,-1790,0219,-0844,0019,-0001,0012,089.6309,025.9555,007.0598
578669467,-1811,0231,-0881,0015,-0001,0020,089.2452,024.9759,006.9703
578675135,-1796,0219,-0850,0018,-0001,0017,089.1511,025.8560,007.3099
578680817,-1789,0223,-0876,0017,0002,0016,089.4156,025.0741,006.9096
578686520,-1820,0213,-0870,0016,-0002,0016,089.5521,026.0350,007.1373
578692250,-1802,0196,-0859,0021,-0003,0014,090.0667,025.3162,006.6200
578697959,-1789,0222,-0870,0027,-0001,0010,090.9279,025.3598,006.1492
578703681,-1808,0224,-0843,0028,-0001,0008,089.3044,025.8198,007.2093
578709331,-1806,0214,-0862,0031,0000,0007,088.9665,024.7140,007.0424
578714923,-1802,0227,-0853,0028,0001,0007,089.9480,025.4342,006.7219
578720569,-1803,0216,-0873,0028,0002,0009,088.8635,025.1222,007.2346
578726241,-1814,0219,-0855,0031,0002,0008,090.0173,025.7477,006.7761
578731920,-1779,0206,-0857,0034,0005,0010,089.3930,024.9967,006.8943
578737623,-1803,0219,-0888,0029,0008,0014,090.3180,025.6436,006.5704
578743362,-1790,0217,-0868,0030,0011,0011,089.8632,026.1153,006.9739
578749132,-1779,0209,-0884,0030,0009,0014,089.7326,025.6469,006.9029
578754812,-1776,0215,-0852,0028,0010,0011,090.4952,026.3546,006.6717
578760570,-1790,0222,-0857,0026,0010,0011,089.5315,025.3686,006.9279
578766350,-1785,0209,-0869,0024,0005,0012,089.2735,025.4211,007.0916
578772025,-1773,0223,-0883,0023,0001,0013,090.3227,025.8545,006.6244
578777744,-1802,0211,-0853,0025,-0002,0012,089.5268,026.3536,007.2435
578783433,-1782,0214,-0853,0021,0001,0013,089.9156,025.0340,006.6103
578789138,-1776,0213,-0874,0024,-0001,0015,089.6719,025.4653,006.8784
578794827,-1778,0219,-0876,0023,0000,0015,090.0901,026.1125,006.8354
578800397,-1784,0218,-0856,0023,0003,0011,089.7066,026.0524,007.0412
578806126,-1783,0203,-0885,0026,0002,0015,089.4902,025.3938,006.9585
578811828,-1787,0230,-0887,0021,-0001,0010,090.9190,026.3748,006.4266
578817533,-1792,0218,-0856,0022,0000,0010,089.0777,026.1869,007.4573
578823143,-1802,0215,-0887,0022,0000,0010,089.5749,025.2775,006.8785
578828718,-1810,0214,-0906,0021,0001,0006,090.1798,026.1312,006.7940
578834409,-1807,0215,-0872,0017,-0002,0008,090.4468,026.4650,006.7365
578840092,-1814,0205,-0888,0020,-0001,0005,089.8556,025.4987,006.7890
578845724,-1792,0212,-0876,0022,0003,0004,090.7770,025.9887,006.4065
578851405,-1821,0210,-0877,0024,0004,0009,090.0546,025.8820,006.7910
578857064,-1818,0231,-0876,0024,0005,0004,090.2897,025.5338,006.5520
578862711,-1789,0223,-0864,0028,0008,0005,088.9610,025.5512,007.3157
578868374,-1775,0217,-0903,0032,0003,0002,089.4196,025.6130,007.0724
578874025,-1803,0230,-0855,0033,0005,0004,090.3259,026.9571,006.9509
578879699,-1771,0222,-0866,0029,0002,0004,088.6552,024.9887,007.3019
578885374,-1771,0210,-0883,0031,-0003,0009,089.5310,025.9825,007.1243
578891047,-1781,0224,-0860,0028,0002,0009,090.4304,026.3835,006.7169
578896707,-1763,0229,-0868,0028,0000,0008,089.1071,025.5116,007.2156
578902237,-1771,0223,-0883,0030,0004,0012,089.0766,026.0621,007.4138
578907926,-1785,0217,-0857,0024,0006,0013,089.6849,026.3541,007.1477
578913605,-1796,0210,-0882,0021,0005,0014,089.5730,025.3833,006.9084
578919339,-1784,0214,-0869,0020,0006,0011,090.4249,026.0920,006.6348
578925055,-1779,0201,-0864,0017,0008,0012,089.8554,025.7739,006.8693
578930772,-1785,0205,-0870,0014,0009,0009,090.6776,025.7618,006.3956
578936432,-1776,0204,-0859,0017,0007,0010,090.4125,025.8473,006.5720
578942115,-1788,0221,-0897,0016,0003,0013,090.3422,025.6446,006.5525
578947888,-1784,0220,-0868,0012,-0003,0009,089.8590,026.5930,007.1247
578953519,-1796,0218,-0871,0013,-0003,0010,089.5527,025.6804,007.0208
578959216,-1811,0205,-0888,0018,-0002,0015,089.7630,025.7088,006.9096
578964911,-1776,0207,-0869,0019,-0001,0013,090.7954,026.0077,006.4032
578970618,-1802,0215,-0894,0019,0004,0013,090.2666,025.9096,006.6790
578976357,-1806,0216,-0874,0024,0008,0012,090.2064,026.2710,006.8213
578982075,-1802,0226,-0863,0020,0013,0008,089.8538,025.5911,006.8196
578987779,-1807,0222,-0851,0019,0017,0010,089.0953,025.3981,007.1930
578993553,-1822,0221,-0862,0020,0022,0009,089.2616,025.0095,006.9766
578999237,-1825,0235,-0858,0021,0017,0006,089.4869,025.1808,006.9072
579004965,-1806,0238,-0881,0022,0019,0006,088.5140,024.9816,007.3905
579010716,-1813,0219,-0872,0026,0017,0008,088.8471,025.9347,007.5229
579016473,-1806,0237,-0845,0031,0019,0003,089.8454,025.4762,006.7992
579022189,-1786,0238,-0849,0033,0018,0005,088.1039,024.8132,007.5631
579027939,-1790,0237,-0889,0038,0019,0007,088.3528,025.2946,007.5903
579033661,-1794,0229,-0848,0034,0018,0008,089.0645,026.3531,007.5323
579039384,-1770,0211,-0869,0033,0013,0007,088.7782,024.9661,007.2382
579045119,-1775,0226,-0856,0028,0012,0010,090.2860,026.1220,006.7409
579050874,-1775,0226,-0871,0024,0011,0010,088.9565,025.5026,007.3166
579056613,-1783,0206,-0844,0022,0010,0012,089.3666,026.0190,007.2486
579062360,-1766,0212,-0820,0017,0007,0016,090.1414,025.0909,006.5199
579068114,-1773,0205,-0873,0012,0008,0018,089.2943,024.7246,006.8756
579073861,-1775,0205,-0860,0016,0008,0023,090.6646,026.2507,006.5626
579079585,-1774,0217,-0862,0019,0008,0024,090.2931,025.6422,006.5968
579085323,-1795,0219,-0864,0021,0010,0023,089.6092,025.7638,007.0253
579091082,-1802,0194,-0838,0023,0006,0022,089.5977,025.5058,006.9502
579096771,-1794,0224,-0839,0027,0007,0022,090.8060,024.7287,006.0482
579102503,-1815,0213,-0880,0028,0006,0020,088.6832,024.9176,007.2675
579108204,-1804,0232,-0865,0026,0014,0018,090.3261,025.8198,006.6209
579114015,-1816,0219,-0833,0029,0011,0020,088.6558,025.3789,007.4378
579119780,-1812,0218,-0874,0026,0019,0014,089.2105,024.3665,006.8001
579125584,-1818,0231,-0841,0028,0018,0012,089.8828,025.7879,006.8696
579131389,-1826,0217,-0834,0026,0011,0007,088.3878,024.4919,007.2916
579137127,-1837,0217,-0853,0025,0015,0007,089.4087,024.3877,006.7062
579142848,-1823,0204,-0852,0026,0009,0004,089.5914,024.8044,006.7376
579148530,-1809,0210,-0878,0022,0008,0006,090.3864,024.9279,006.3396
579154194,-1799,0199,-0857,0023,0001,0005,090.3015,025.8417,006.6553
579159857,-1808,0210,-0870,0022,0003,0005,090.6946,025.2728,006.2669
579165515,-1801,0210,-0853,0022,0010,0009,090.1385,025.5833,006.6694
579171216,-1810,0205,-0839,0025,0008,0009,089.9411,025.1433,006.6471
579176878,-1788,0194,-0855,0026,0011,0009,090.0695,024.6813,006.4373
579182625,-1791,0199,-0862,0031,0009,0009,091.0197,025.5334,006.1554
579188311,-1794,0217,-0839,0028,0012,0009,090.6648,025.5717,006.3632
579194021,-1778,0222,-0868,0025,0010,0006,089.1880,024.8242,006.9605
579199695,-1777,0238,-0859,0023,0010,0006,089.5322,025.9806,007.1355
579205362,-1800,0253,-0857,0021,0016,0006,088.3625,025.5623,007.6816
579211085,-1796,0226,-0889,0023,0012,0005,087.5255,025.2021,008.0422
579216831,-1783,0218,-0855,0024,0012,0003,089.8810,026.2989,007.0406
579222523,-1787,0233,-0858,0023,0012,0005,089.5140,025.3613,006.9606
579228233,-1785,0218,-0841,0026,0013,0008,088.6531,025.4763,007.4912
579233996,-1795,0220,-0848,0026,0009,0012,089.4364,025.0156,006.8983
579239729,-1788,0231,-0861,0025,0006,0011,089.3255,025.1387,006.9999
579245426,-1796,0220,-0851,0029,0009,0016,088.8549,025.5846,007.4133
579251175,-1788,0214,-0850,0030,0007,0017,089.4584,025.1324,006.9228
579256844,-1785,0219,-0875,0034,0005,0018,089.7334,025.2855,006.8140
579262558,-1775,0207,-0855,0037,0003,0016,089.7778,026.0437,007.0209
579268287,-1778,0213,-0834,0036,0000,0017,090.2026,025.5159,006.6115
579273919,-1781,0233,-0877,0035,0003,0016,089.4521,024.9290,006.8488
579279640,-1791,0216,-0862,0036,-0001,0017,088.9457,026.1906,007.5467
579285379,-1794,0218,-0856,0032,-0001,0013,089.8484,025.4475,006.7828
579291121,-1800,0196,-0860,0039,0001,0015,089.4850,025.3296,006.9483
579296818,-1801,0218,-0849,0031,0003,0011,091.0147,025.4164,006.1127
579302550,-1791,0223,-0889,0032,0003,0008,089.1925,025.0305,007.0113
579308199,-1798,0214,-0859,0031,0003,0010,089.7682,026.3826,007.1071
579313913,-1815,0218,-0853,0029,0003,0015,089.7815,025.2484,006.7464
579319611,-1787,0212,-0877,0028,0004,0013,089.4262,024.9849,006.8619
579325328,-1806,0206,-0868,0030,0003,0020,090.2316,026.1329,006.7532
579331004,-1794,0214,-0876,0028,0008,0019,090.3527,025.4537,006.4798
579336809,-1812,0205,-0887,0026,0008,0016,089.9433,025.9349,006.8560
579342555,-1789,0225,-0889,0026,0008,0014,090.7281,025.9410,006.4023
579348268,-1789,0204,-0881,0026,0010,0016,089.4102,026.2904,007.2780
579354025,-1784,0217,-0894,0027,0008,0012,090.7878,026.0415,006.3928
579359731,-1785,0219,-0873,0024,0009,0007,089.9705,026.5079,007.0106
579365380,-1801,0219,-0880,0022,0008,0006,089.6425,025.8197,006.9909
579371052,-1798,0212,-0894,0018,0005,0006,089.7935,025.8826,006.9248
579376713,-1796,0225,-0869,0017,0006,0009,090.4107,026.3301,006.7000
579382356,-1795,0214,-0887,0018,0005,0007,089.1598,025.5643,007.1922
579388049,-1804,0204,-0855,0019,0005,0011,090.2780,026.2135,006.7460
579393823,-1787,0206,-0841,0018,0010,0014,090.2743,025.0791,006.4127
579399563,-1789,0217,-0875,0022,0010,0012,089.9287,025.0567,006.5967
579405292,-1796,0222,-0856,0021,0011,0011,089.8036,026.0291,006.9654
579411131,-1795,0220,-0855,0023,0011,0011,089.1867,025.2031,007.0595
579416938,-1785,0218,-0849,0021,0010,0010,089.4057,025.3227,006.9759
579422686,-1784,0216,-0905,0021,0014,0007,089.4074,025.2704,006.9603
579428389,-1783,0228,-0858,0019,0014,0008,090.4017,026.9481,006.8949
579434147,-1786,0222,-0863,0017,0010,0006,088.7964,025.3387,007.3349
579439864,-1796,0229,-0853,0017,0011,0005,089.4823,025.6595,007.0498
579445614,-1795,0215,-0888,0020,0007,0007,088.7715,025.1644,007.2967
579451252,-1799,0210,-0857,0019,0006,0004,090.3056,026.2874,006.7683
579456937,-1788,0219,-0860,0021,0008,0012,089.9506,025.2013,006.6451
579462626,-1790,0216,-0843,0021,0008,0012,089.4708,025.5650,007.0294
579468333,-1795,0222,-0861,0021,0005,0013,089.4488,024.9981,006.8639
579474082,-1776,0208,-0870,0025,0008,0013,089.3649,025.5278,007.0794
579479790,-1806,0211,-0851,0022,0009,0012,090.3961,025.9988,006.6304
579485506,-1777,0226,-0868,0022,0012,0014,089.7761,024.9636,006.6696
579491278,-1770,0226,-0865,0023,0010,0010,089.1797,025.9859,007.3334
579497007,-1766,0229,-0862,0023,0011,0009,089.2175,025.8510,007.2691
579502777,-1784,0220,-0847,0023,0011,0010,088.9811,025.8298,007.4021
579508542,-1786,0210,-0884,0018,0010,0007,089.3363,025.1572,006.9833
579514251,-1799,0229,-0847,0022,0010,0007,090.5189,026.3312,006.6633
579519974,-1798,0209,-0883,0020,0010,0011,088.5447,024.8640,007.3329
579525773,-1804,0219,-0852,0015,0010,0013,090.7023,026.1887,006.5188
579531537,-1794,0216,-0872,0018,0011,0013,089.2447,024.9719,006.9793
579537344,-1804,0212,-0888,0021,0011,0011,089.9876,025.8937,006.8471
579543169,-1797,0219,-0887,0024,0010,0015,090.3665,026.0798,006.6818
579548893,-1794,0213,-0861,0030,0008,0013,089.8605,026.1089,006.9842
579554597,-1809,0212,-0864,0032,0007,0013,089.8990,025.3992,006.7416
579560351,-1795,0222,-0880,0032,0008,0012,090.0021,025.3770,006.6747
579566075,-1802,0219,-0869,0028,0008,0009,089.6058,026.0285,007.1030
579571767,-1799,0223,-0888,0028,0010,0011,089.6729,025.5271,006.9064
579577531,-1776,0227,-0850,0026,0009,0012,089.7108,026.1847,007.0898
579583210,-1791,0209,-0877,0023,0014,0011,088.8645,025.3212,007.3031
579588973,-1785,0215,-0875,0026,0011,0010,090.5535,026.0345,006.5549
579594766,-1781,0222,-0878,0026,0012,0012,089.8785,025.9414,006.9174
579600529,-1781,0215,-0884,0022,0013,0015,089.5853,026.0903,007.1355
579606294,-1792,0210,-0892,0022,0013,0016,090.1636,026.2583,006.8469
579612103,-1785,0219,-0868,0022,0011,0014,090.5086,026.3175,006.6601
579617902,-1791,0233,-0880,0027,0014,0013,089.5149,025.6858,007.0447
579623767,-1789,0223,-0873,0028,0011,0011,088.9704,026.0301,007.4745
579629551,-1792,0226,-0880,0025,0010,0009,089.5801,025.8110,007.0480
579635227,-1796,0220,-0865,0024,0009,0011,089.4125,025.9997,007.2063
579640960,-1783,0213,-0893,0022,0008,0013,089.5706,025.4893,006.9538
579646684,-1767,0234,-0859,0023,0007,0015,090.4201,026.5855,006.7926
579652375,-1794,0213,-0869,0022,0005,0009,088.5200,025.6487,007.6147
579658041,-1796,0223,-0885,0025,0007,0013,090.1973,025.6943,006.6623
579663758,-1799,0215,-0872,0023,0009,0008,089.6046,026.1115,007.1347
579669441,-1775,0220,-0877,0020,0010,0005,089.9838,025.6513,006.7732
579675108,-1821,0226,-0882,0023,0008,0010,089.7005,026.1802,007.1016
579680784,-1786,0220,-0884,0023,0009,0012,089.4465,025.6179,007.0722
579686498,-1787,0220,-0869,0024,0007,0009,089.8837,026.2427,007.0141
579692159,-1807,0225,-0868,0020,0006,0007,089.5908,025.7041,007.0180
579697764,-1794,0219,-0888,0025,0008,0007,089.3079,025.4636,007.1045
579703428,-1800,0227,-0868,0027,0010,0009,090.0234,026.2611,006.9394
579709114,-1790,0221,-0877,0030,0013,0008,089.1243,025.4850,007.2163
579714806,-1809,0229,-0887,0025,0016,0007,089.7630,025.9983,007.0118
579720502,-1814,0215,-0866,0025,0019,0010,089.3432,025.9392,007.2391
579726235,-1811,0243,-0838,0025,0021,0007,089.9407,025.2977,006.6965
579731941,-1821,0232,-0884,0022,0022,0009,087.5881,024.5565,007.7657
579737749,-1830,0210,-0886,0026,0021,0012,089.4121,025.8917,007.1852
579743557,-1830,0232,-0869,0030,0018,0008,090.5504,025.6661,006.4597
579749255,-1826,0230,-0873,0035,0015,0010,088.7798,025.1790,007.3098
579754960,-1813,0229,-0860,0039,0016,0015,089.1689,025.4065,007.1622
579760744,-1808,0230,-0855,0037,0012,0013,088.9633,025.1768,007.2025
579766532,-1781,0222,-0856,0042,0012,0014,088.8396,025.1295,007.2547
579772291,-1771,0222,-0860,0041,0015,0015,089.3795,025.5532,007.0834
579778040,-1762,0227,-0868,0037,0016,0016,089.3676,025.7522,007.1519
579783866,-1769,0223,-0870,0031,0016,0015,089.1834,026.0815,007.3658
579789644,-1774,0232,-0863,0031,0017,0016,089.4860,026.0061,007.1626
579795443,-1774,0218,-0859,0032,0017,0017,088.7648,025.7222,007.4904
579801245,-1762,0210,-0888,0034,0022,0016,089.6798,025.6697,006.9431
579807058,-1775,0224,-0865,0034,0016,0016,090.5033,026.7214,006.7755
579812863,-1786,0208,-0901,0034,0012,0019,089.1516,025.6863,007.2481
579818643,-1767,0197,-0851,0033,0010,0019,090.8924,026.7637,006.5483
579824385,-1762,0221,-0885,0035,0008,0019,090.5966,025.4741,006.3461
579830090,-1762,0209,-0856,0037,0002,0019,089.6294,026.6157,007.2499
579835837,-1766,0221,-0871,0032,0002,0018,090.0276,025.6757,006.7220
579841566,-1790,0201,-0873,0029,-0002,0017,089.4690,026.1218,007.1828
579847311,-1783,0224,-0850,0022,0001,0016,090.8365,025.8182,006.2973
579853005,-1784,0234,-0886,0022,0000,0014,088.8379,025.2543,007.2610
579858618,-1810,0204,-0900,0020,0000,0017,089.0410,026.3381,007.5028
579864179,-1810,0205,-0875,0016,0003,0012,090.9923,026.2894,006.3336
579869868,-1811,0212,-0861,0017,0004,0013,090.3864,025.5811,006.4790
579875593,-1808,0219,-0862,0016,0005,0013,089.8031,025.2363,006.7051
579881332,-1813,0219,-0882,0017,0003,0014,089.4506,025.3409,006.9370
579887052,-1810,0230,-0875,0022,0006,0010,089.8205,025.8377,006.8809
579892732,-1812,0205,-0871,0026,0010,0013,088.9869,025.5971,007.2858
579898516,-1819,0211,-0881,0031,0008,0010,090.6144,025.5230,006.3345
579904216,-1812,0220,-0868,0030,0012,0008,090.1561,025.7168,006.6490
579909898,-1796,0211,-0881,0032,0015,0005,089.4532,025.4027,006.9521
579915612,-1803,0219,-0882,0030,0020,0005,090.3084,026.0618,006.6615
579921278,-1800,0231,-0886,0026,0018,0010,089.7086,025.8882,006.9567
579927027,-1803,0214,-0849,0022,0020,0008,089.1054,026.0476,007.3624
579932727,-1797,0217,-0881,0021,0020,0008,089.6669,024.9405,006.6931
579938425,-1802,0221,-0863,0016,0020,0009,089.9094,026.1025,006.9139
579944098,-1803,0221,-0881,0016,0020,0011,089.3485,025.3465,007.0031
579949819,-1770,0213,-0878,0015,0020,0011,089.7112,025.9520,006.9879
579955567,-1776,0210,-0878,0018,0022,0009,090.1180,026.2616,006.8461
579961310,-1781,0215,-0889,0019,0024,0013,090.2516,026.1413,006.7317
579967114,-1774,0232,-0880,0022,0017,0012,090.0838,026.4020,006.9088
579972914,-1786,0222,-0835,0028,0018,0011,088.9117,026.1654,007.5303
579978732,-1763,0238,-0886,0025,0017,0014,088.9629,024.7360,007.0320
579984480,-1755,0214,-0865,0029,0013,0010,088.8119,026.7297,007.7834
579990263,-1772,0238,-0851,0024,0011,0010,089.9467,026.0102,006.8730
579996005,-1752,0222,-0874,0027,0009,0011,088.1123,025.3932,007.7349
580001766,-1796,0230,-0890,0023,0010,0008,089.6780,026.4349,007.1644
580007457,-1785,0210,-0892,0024,0007,0011,089.2709,026.1442,007.3143
580013167,-1790,0212,-0880,0025,0010,0013,090.5831,026.4325,006.6258
580018923,-1785,0230,-0873,0024,0013,0010,090.0951,025.9664,006.7725
580024724,-1790,0205,-0872,0023,0011,0014,088.9045,025.8646,007.4348
580030513,-1791,0232,-0878,0021,0008,0014,090.6778,025.8215,006.3954
580036229,-1782,0210,-0850,0025,0009,0016,088.8009,025.9441,007.5218
580041917,-1791,0216,-0895,0024,0016,0014,089.9785,025.2884,006.6373
580047723,-1784,0240,-0871,0026,0012,0017,090.1594,026.5704,006.9184
580053514,-1797,0219,-0871,0021,0012,0015,088.2392,025.7096,007.7765
580059281,-1802,0218,-0885,0029,0021,0016,089.8691,025.6984,006.8282
580065069,-1785,0234,-0871,0029,0024,0016,089.9095,026.0444,006.9096
580070846,-1783,0211,-0874,0031,0020,0012,088.6670,025.7902,007.5537
580076581,-1797,0222,-0870,0031,0024,0007,090.3575,025.9878,006.6320
580082323,-1783,0238,-0886,0029,0022,0003,089.3594,025.6253,007.0964
580088038,-1789,0224,-0895,0030,0020,0005,088.7656,026.3164,007.6743
580093720,-1800,0246,-0880,0025,0019,0008,089.8376,026.4167,007.0663
580099419,-1794,0220,-0881,0024,0017,0008,088.1272,025.7782,007.8704
580105126,-1796,0229,-0862,0026,0011,0008,089.9702,026.0168,006.8704
580110879,-1796,0226,-0860,0026,0014,0011,088.8378,025.3832,007.3224
580116718,-1799,0219,-0869,0027,0016,0012,089.1692,025.4219,007.1472
580122507,-1792,0220,-0882,0029,0016,0014,089.7129,025.6532,006.9093
580128292,-1803,0208,-0851,0033,0011,0012,089.7723,026.0992,007.0116
580134057,-1804,0225,-0873,0037,0012,0014,090.0363,024.9868,006.5193
580139809,-1787,0212,-0870,0037,0013,0012,089.2569,025.7525,007.1949
580145590,-1804,0224,-0899,0038,0015,0012,090.1475,025.8145,006.6973
580151346,-1778,0238,-0874,0036,0018,0017,089.7018,026.3903,007.1317
580157137,-1783,0225,-0895,0030,0015,0012,088.4912,025.9197,007.6959
580162844,-1783,0214,-0887,0027,0019,0015,089.8068,026.5582,007.1220
580168618,-1786,0221,-0859,0025,0021,0014,090.1832,026.2523,006.8035
580174373,-1809,0216,-0907,0024,0026,0015,089.2460,025.4256,007.0893
580180123,-1781,0219,-0903,0026,0025,0022,090.4139,026.6182,006.7743
580185882,-1775,0209,-0883,0033,0022,0015,090.0174,026.7346,007.0451
580191623,-1786,0217,-0861,0028,0027,0018,090.3873,026.2424,006.6742
580197421,-1787,0204,-0877,0025,0026,0018,089.4809,025.4862,006.9668
580203174,-1783,0207,-0878,0024,0019,0018,090.6961,026.0779,006.4452
580208955,-1762,0206,-0865,0022,0023,0019,090.3316,026.0709,006.6531
580214729,-1763,0213,-0887,0021,0018,0014,090.2574,025.9908,006.6718
580220509,-1770,0229,-0897,0016,0022,0014,090.1571,026.6231,006.9214
580226303,-1757,0219,-0884,0018,0022,0013,089.3349,026.7001,007.4444
580232092,-1782,0210,-0909,0020,0021,0013,089.8673,026.5179,007.0662
580237862,-1789,0240,-0900,0019,0019,0009,090.7286,026.9247,006.6693
580243566,-1775,0228,-0864,0016,0019,0008,088.6768,026.4518,007.7661
580249290,-1773,0208,-0877,0011,0019,0008,089.0984,025.6970,007.2694
580255023,-1758,0233,-0875,0013,0018,0006,090.5095,026.2296,006.6153
580260774,-1774,0213,-0873,0011,0014,0008,088.7780,026.2688,007.6573
580266513,-1784,0216,-0862,0016,0013,0006,090.1902,026.0145,006.7451
580272254,-1777,0193,-0878,0017,0015,0003,089.6542,025.5784,006.9227
580277970,-1775,0226,-0898,0019,0014,0001,091.4197,026.2410,006.0990
580283711,-1784,0218,-0878,0019,0012,0001,089.4182,026.7153,007.4305
580289419,-1779,0225,-0884,0016,0008,0001,089.9019,025.9462,006.9023
580295084,-1786,0210,-0882,0016,0011,0006,089.4971,026.2848,007.2491
580300845,-1791,0214,-0895,0015,0014,0007,090.4658,026.1062,006.6259
580306542,-1774,0226,-0910,0016,0016,0009,090.2686,026.4329,006.8398
580312274,-1783,0217,-0906,0012,0015,0010,089.7882,027.0528,007.3249
580317999,-1779,0223,-0902,0017,0018,0012,090.3420,026.7335,006.8890
580323775,-1785,0201,-0886,0015,0013,0014,089.8374,026.7057,007.1865
580329504,-1778,0228,-0873,0014,0019,0016,091.0371,026.1971,006.3234
580335320,-1798,0223,-0897,0014,0021,0018,088.9558,025.9375,007.4618
580341095,-1785,0214,-0899,0012,0017,0018,089.9622,026.4028,007.0183
580346861,-1787,0228,-0870,0017,0020,0017,090.4055,026.5985,006.8133
580352609,-1788,0217,-0887,0013,0024,0015,089.0185,025.6676,007.3397
580358366,-1774,0243,-0876,0015,0029,0013,090.1931,026.3119,006.8589
580364149,-1785,0220,-0897,0015,0022,0009,088.2346,026.0405,007.9368
580369864,-1770,0233,-0886,0016,0027,0009,090.2715,026.5814,006.8994
580375686,-1797,0216,-0862,0019,0022,0012,089.0106,026.3729,007.5917
580381462,-1778,0217,-0907,0018,0019,0012,089.8910,025.3425,006.7512
580387237,-1776,0218,-0869,0022,0019,0006,090.3973,027.1117,006.9915
580392950,-1790,0223,-0893,0019,0016,0008,089.6950,025.7711,006.9985
580398677,-1790,0210,-0875,0022,0013,0012,089.8417,026.4228,007.1170
580404450,-1786,0202,-0888,0019,0012,0016,090.3568,025.8219,006.6318
580410255,-1767,0201,-0882,0022,0011,0014,090.9830,026.3707,006.4251
580416046,-1779,0194,-0899,0019,0011,0015,090.8572,026.3830,006.5006
580421826,-1776,0219,-0895,0020,0010,0017,091.5474,026.7210,006.1829
580427548,-1749,0218,-0883,0016,0009,0014,089.8397,026.5520,007.1541
580433315,-1774,0197,-0894,0014,0013,0011,089.9650,026.6193,007.1016
580439094,-1772,0221,-0889,0011,0012,0009,091.4268,026.6050,006.2251
580444829,-1792,0208,-0899,0006,0008,0006,089.6611,026.4470,007.2325
580450450,-1777,0216,-0890,0002,0006,0006,090.8317,026.4929,006.5527
580456048,-1783,0208,-0921,-0004,0006,0004,090.0926,026.4287,006.9776
580461665,-1786,0217,-0882,-0005,0006,0006,091.0939,027.2477,006.6186
580467255,-1788,0209,-0875,-0004,0012,0003,089.9072,025.9969,006.9623
580472864,-1796,0209,-0907,-0006,0011,0007,090.4371,025.9152,006.6357
580478537,-1811,0214,-0887,-0002,0013,0005,090.8435,026.7345,006.6405
580484205,-1808,0228,-0897,-0001,0018,0008,090.2157,025.8545,006.7537
580489862,-1799,0222,-0900,0004,0018,0011,089.6002,026.2536,007.2423
580495554,-1790,0228,-0887,0009,0017,0012,090.0845,026.4284,007.0121
580501261,-1801,0233,-0892,0011,0020,0010,089.4664,026.1490,007.2941
580506995,-1797,0241,-0852,0018,0020,0010,089.3310,026.1672,007.3828
580512735,-1786,0237,-0893,0020,0022,0009,088.1757,025.0389,007.6735
580518458,-1802,0246,-0909,0020,0023,0008,089.2990,026.5720,007.5415
580524148,-1774,0233,-0872,0023,0021,0005,088.8739,026.5608,007.7993
580529891,-1774,0234,-0873,0021,0022,0010,089.1110,025.9165,007.4430
580535678,-1781,0231,-0858,0019,0019,0010,089.0386,026.0256,007.5252
580541438,-1770,0233,-0882,0020,0014,0010,088.9895,025.4758,007.3729
580547176,-1761,0238,-0853,0024,0013,0010,089.2752,026.4092,007.5167
580552919,-1765,0222,-0894,0022,0009,0012,088.4649,025.5720,007.7143
580558653,-1764,0222,-0902,0027,0006,0012,090.2108,026.8385,007.0915
580564378,-1781,0223,-0876,0030,0001,0014,090.0907,026.9079,007.1836
580570066,-1786,0217,-0864,0035,-0002,0009,089.6484,025.9013,007.1278
580575686,-1770,0232,-0893,0035,-0005,0010,089.8827,025.6202,006.9017
580581369,-1785,0220,-0877,0038,-0006,0013,089.3780,026.7060,007.5445
580587067,-1770,0223,-0889,0037,-0006,0010,089.9289,025.8981,006.9550
580592774,-1757,0229,-0887,0033,0001,0012,089.8485,026.5672,007.2098
580598491,-1758,0219,-0897,0033,0000,0011,089.4659,026.5945,007.4480
580604133,-1769,0203,-0882,0026,0003,0011,090.2468,026.8816,007.0634
580609857,-1781,0236,-0911,0027,0003,0014,090.9126,026.2883,006.4863
580615581,-1796,0224,-0900,0024,0003,0017,089.2431,026.9740,007.7040
580621270,-1806,0222,-0894,0026,0003,0018,090.0154,026.3751,007.0406
580626963,-1801,0214,-0881,0028,0001,0018,089.9472,026.1395,007.0056
580632679,-1798,0226,-0896,0028,-0002,0018,090.2467,025.8759,006.7478
580638433,-1779,0199,-0900,0032,-0002,0016,089.6915,026.3696,007.2239
580644142,-1784,0220,-0903,0035,0002,0017,091.4751,026.7367,006.2633
580649851,-1789,0225,-0888,0040,-0002,0013,089.9823,026.6628,007.1314
580655544,-1779,0219,-0903,0043,0001,0016,089.6440,026.1623,007.1711
580661243,-1792,0222,-0887,0042,-0001,0006,090.2802,026.8184,006.9903
580666892,-1795,0228,-0874,0038,0004,0009,089.7667,026.0849,007.0667
580672549,-1788,0214,-0911,0035,0004,0005,089.2550,025.7449,007.2555
580678198,-1790,0226,-0878,0037,0006,0004,090.7188,026.9759,006.7638
580683848,-1790,0227,-0896,0030,0009,0005,089.3182,025.8304,007.2429
580689505,-1807,0219,-0884,0023,0005,0005,089.7078,026.4826,007.2231
580695152,-1796,0222,-0886,0022,0002,0005,089.9608,025.8390,006.8737
580700830,-1798,0215,-0886,0017,0003,0009,089.7759,026.1173,007.0692
580706488,-1796,0206,-0924,0018,0002,0006,090.2316,026.0652,006.7873
580712160,-1778,0206,-0903,0023,0004,0012,091.2398,027.1989,006.5126
580717853,-1771,0201,-0882,0023,0006,0018,090.8221,026.7152,006.6243
580723553,-1771,0201,-0871,0025,0006,0012,090.8894,026.2839,006.4576
580729235,-1783,0217,-0898,0027,0005,0016,090.7175,026.0184,006.4781
580734957,-1781,0221,-0875,0028,0007,0017,090.1298,026.6437,007.0078
580740652,-1788,0207,-0888,0029,0005,0015,089.6151,025.9095,007.0823
580746356,-1790,0227,-0880,0026,0004,0011,090.7520,026.3081,006.5364
580752095,-1791,0216,-0896,0021,0002,0010,089.2227,025.9542,007.3251
580757790,-1799,0221,-0868,0017,0000,0008,090.3607,026.4722,006.8163
580763353,-1789,0227,-0874,0016,0003,0008,089.4957,025.5002,007.0221
580769016,-1792,0226,-0892,0015,0007,0007,089.3150,025.9059,007.2595
580774647,-1797,0232,-0906,0015,0009,0007,089.6861,026.3300,007.1793
580780301,-1798,0210,-0880,0019,0004,0005,089.5030,026.5939,007.3758
580785974,-1807,0220,-0873,0022,0007,0003,090.4733,025.8463,006.5735
580791649,-1788,0217,-0898,0023,0010,0003,089.6266,025.5960,006.9835
580797347,-1781,0226,-0885,0026,0005,0006,090.2966,026.6272,006.9082
580802996,-1796,0217,-0906,0023,0011,0005,089.4648,026.1955,007.2703
580808733,-1762,0219,-0886,0025,0010,0009,090.4342,026.6604,006.8359
580814400,-1759,0237,-0890,0026,0013,0009,089.8977,026.5078,007.1102
580820121,-1769,0208,-0901,0023,0014,0012,088.9312,026.6498,007.7428
580825889,-1767,0222,-0874,0024,0014,0013,090.9961,026.8626,006.5545
580831688,-1766,0221,-0886,0027,0010,0015,089.4316,026.0513,007.2380
580837439,-1772,0240,-0886,0027,0012,0016,089.8804,026.5234,007.1203
580843218,-1781,0224,-0853,0026,0010,0012,088.6482,026.3352,007.8007
580848954,-1769,0223,-0881,0026,0007,0014,089.2714,025.3112,007.0961
580854698,-1767,0227,-0874,0029,0006,0010,089.7145,026.4316,007.1956
580860399,-1784,0225,-0894,0025,0003,0007,089.3059,026.0986,007.3323
580866001,-1781,0222,-0907,0021,-0003,0010,089.7803,026.4730,007.1709
580871689,-1789,0229,-0887,0021,0001,0007,090.1034,026.8540,007.0950
580877330,-1795,0213,-0887,0022,-0005,0006,089.3421,026.1062,007.3156
580883010,-1787,0222,-0894,0020,-0004,0008,090.4138,026.1381,006.6964
580888653,-1783,0222,-0903,0023,-0001,0007,089.8350,026.4340,007.1283
580894319,-1785,0207,-0887,0023,-0003,0011,090.0371,026.7121,007.0931
580899998,-1798,0219,-0894,0027,-0004,0008,090.6922,026.2117,006.5513
580905675,-1802,0220,-0909,0025,-0005,0012,089.9686,026.2734,006.9934
580911339,-1800,0226,-0899,0027,-0002,0011,090.2147,026.6343,006.9557
580917070,-1786,0224,-0888,0026,0000,0012,089.6735,026.3240,007.1820
580922713,-1797,0219,-0901,0027,-0002,0013,089.6950,026.2486,007.1444
580928451,-1808,0224,-0925,0029,0002,0014,090.1915,026.4882,006.9215
580934192,-1800,0219,-0882,0028,0000,0017,090.1664,026.9715,007.0817
580939809,-1784,0234,-0863,0028,0004,0015,089.8398,025.8308,006.9224
580945507,-1787,0220,-0894,0029,0003,0016,088.6317,025.5966,007.5454
580951223,-1792,0242,-0908,0027,0012,0018,090.1600,026.5253,006.9444
580957023,-1783,0229,-0884,0035,0013,0015,088.8278,026.6875,007.8016
580962759,-1761,0216,-0860,0037,0015,0011,089.4319,026.1207,007.2490
580968534,-1787,0226,-0905,0033,0016,0011,089.7634,025.8388,006.9646
580974296,-1790,0241,-0876,0031,0012,0011,089.8025,026.8068,007.2435
580980079,-1769,0219,-0885,0029,0012,0012,088.4026,025.7423,007.7283
580985811,-1781,0216,-0872,0030,0011,0013,090.1051,026.4957,006.9663
580991602,-1804,0221,-0865,0029,0005,0014,089.8587,025.8403,006.9077
580997318,-1767,0226,-0890,0028,0005,0011,089.4679,025.4002,006.9934
581003055,-1783,0207,-0893,0027,0001,0017,089.5988,026.7104,007.3329
581008753,-1795,0216,-0909,0026,0000,0013,090.7894,026.4141,006.5277
581014366,-1785,0211,-0903,0023,-0001,0016,090.3118,026.7216,006.9009
581020067,-1788,0217,-0884,0028,-0003,0014,090.5793,026.6655,006.7203
581025785,-1779,0206,-0892,0028,0001,0014,089.8899,026.0702,006.9469
581031494,-1776,0212,-0914,0026,0002,0015,090.7833,026.5350,006.5565
581037223,-1778,0211,-0901,0025,0003,0016,090.5945,027.1452,006.8454
581042945,-1801,0208,-0888,0027,0004,0014,090.4949,026.6530,006.7575
581048666,-1788,0226,-0893,0027,0007,0015,090.5004,026.0258,006.5672
581054381,-1779,0219,-0877,0021,0007,0009,089.4664,026.4060,007.2933
581060051,-1779,0222,-0873,0020,0005,0010,089.7900,026.0307,006.9844
581065708,-1776,0238,-0884,0025,0004,0012,089.5026,025.9557,007.1286
581071397,-1799,0223,-0882,0016,0007,0012,088.7286,026.3015,007.7043
581077094,-1789,0212,-0899,0018,0003,0012,089.7233,025.8995,006.9874
581082812,-1790,0228,-0907,0018,0006,0012,090.5303,026.6084,006.7270
581088594,-1779,0219,-0888,0016,0003,0010,089.5636,026.6966,007.3378
581094285,-1782,0197,-0880,0019,0002,0009,089.9664,026.3077,006.9750
581099952,-1784,0229,-0896,0021,0002,0008,091.1556,026.1217,006.2236
581105643,-1796,0219,-0884,0017,0001,0007,089.2642,026.5278,007.4650
581111300,-1786,0220,-0888,0016,0002,0008,089.9411,025.9805,006.8918
581116980,-1783,0216,-0902,0020,0001,0009,089.8595,026.3021,007.0396
581122596,-1777,0199,-0871,0022,0004,0010,090.3165,026.7106,006.8911
581128320,-1786,0227,-0906,0023,0003,0010,090.8572,025.8828,006.3302
581134019,-1786,0203,-0907,0022,0004,0011,089.5780,026.8286,007.3722
581139751,-1781,0230,-0869,0023,0010,0012,091.2132,026.7698,006.3637
581145491,-1790,0238,-0899,0023,0007,0013,088.7445,025.6979,007.4901
581151230,-1772,0212,-0907,0020,0005,0017,089.0774,026.5782,007.5889
581156953,-1789,0212,-0882,0015,0006,0011,090.7349,026.9939,006.7120
581162685,-1785,0223,-0875,0016,0008,0015,090.1284,025.9645,006.7673
581168372,-1788,0219,-0878,0021,0009,0010,089.4238,025.9373,007.1698
581174078,-1782,0217,-0906,0018,0011,0012,089.8191,025.9942,006.9585
581179867,-1778,0214,-0883,0022,0008,0010,090.3171,026.9059,006.9402
581185588,-1777,0201,-0887,0022,0003,0012,090.0825,026.1586,006.8534
581191301,-1763,0227,-0880,0025,0008,0009,090.9829,026.4133,006.3971
581196949,-1761,0215,-0918,0025,0000,0010,089.1931,026.3288,007.4323
581202574,-1782,0226,-0877,0020,-0003,0010,090.6562,027.4897,006.8993
581208227,-1764,0207,-0887,0020,-0003,0005,089.2119,025.8497,007.2636
581213853,-1778,0216,-0899,0021,-0003,0010,090.6774,026.6074,006.6322
581219570,-1778,0220,-0902,0021,-0002,0010,090.1401,026.6578,006.9682
581225283,-1772,0215,-0902,0022,-0003,0006,090.0191,026.7305,007.0635
581230927,-1801,0226,-0893,0024,0003,0009,090.3350,026.8184,006.8981
581236567,-1813,0225,-0895,0023,0002,0010,089.5055,026.1270,007.1797
581242240,-1786,0210,-0884,0023,0006,0012,089.6892,026.0979,007.0628
581247939,-1790,0237,-0884,0023,0007,0012,090.4274,026.1897,006.6573
581253653,-1782,0240,-0883,0021,0008,0014,088.6559,026.0723,007.6654
581259395,-1790,0233,-0889,0031,0006,0016,088.7008,026.1680,007.6717
581265141,-1795,0225,-0896,0033,0006,0011,089.2270,026.2286,007.3781
581270840,-1790,0238,-0893,0039,0001,0011,089.7436,026.3639,007.1111
581276569,-1784,0231,-0851,0042,-0001,0009,088.8353,026.3058,007.6327
581282254,-1796,0238,-0871,0045,-0003,0006,088.6947,025.2058,007.3435
581287868,-1774,0227,-0862,0042,-0005,0006,088.6103,025.7311,007.5680
581293559,-1777,0207,-0858,0037,-0004,0005,089.1464,025.7307,007.2555
581299253,-1794,0218,-0868,0031,-0002,0007,090.2654,025.6079,006.5740
581304933,-1772,0197,-0893,0029,-0003,0012,089.5874,025.6588,006.9750
581310656,-1773,0205,-0887,0026,0000,0014,091.3557,026.7371,006.2538
581316309,-1777,0197,-0874,0024,0002,0015,090.5397,026.3890,006.6364
581322025,-1782,0208,-0862,0019,0003,0013,090.9459,026.0094,006.2895
581327739,-1791,0203,-0868,0021,0000,0018,090.0168,025.6178,006.7061
581333334,-1785,0205,-0889,0024,-0004,0019,090.5328,025.7220,006.4407
581339053,-1770,0223,-0890,0027,-0006,0018,090.6476,026.4104,006.5695
581344816,-1764,0231,-0894,0031,-0003,0020,089.5249,026.5261,007.2705
581350552,-1781,0231,-0919,0029,-0003,0018,089.2569,026.6983,007.4874
581356265,-1778,0250,-0871,0034,-0002,0018,089.6702,027.1524,007.3773
581361963,-1773,0238,-0875,0034,0000,0014,087.7074,025.7217,008.0782
581367554,-1766,0254,-0890,0031,-0001,0013,088.7425,026.0993,007.5986
581373283,-1769,0243,-0876,0030,0000,0009,087.9168,026.5678,008.2648
581378817,-1798,0226,-0905,0026,0009,0010,088.4407,026.0974,007.7835
581384547,-1798,0240,-0890,0023,0008,0007,089.8930,026.5983,007.0795
581390221,-1792,0218,-0885,0022,0006,0010,088.6343,026.0796,007.6652
581395930,-1806,0238,-0896,0018,0009,0004,090.0682,026.1227,006.8360
581401625,-1795,0214,-0865,0021,0007,0006,088.8404,026.2006,007.5885
581407295,-1803,0201,-0883,0020,0003,0006,089.9840,025.4920,006.6992
581412907,-1790,0220,-0907,0019,0005,0005,090.9104,026.0068,006.3201
581418583,-1818,0197,-0886,0021,0004,0005,089.9893,026.7896,007.0957
581424238,-1789,0201,-0883,0029,-0004,0005,091.1877,025.7510,006.0879
581429917,-1795,0190,-0908,0026,0000,0005,090.7573,026.1773,006.4515
581435465,-1786,0201,-0896,0028,0001,0008,091.7908,026.7569,005.9980
581441140,-1787,0207,-0896,0026,0006,0009,090.8466,026.4654,006.4740
581446803,-1787,0211,-0882,0026,0004,0009,090.5969,026.4781,006.6230
581452453,-1764,0218,-0868,0024,0006,0010,090.1771,026.0674,006.7472
581458127,-1766,0233,-0882,0021,0009,0013,089.5941,026.0264,007.0754
581463887,-1782,0212,-0880,0022,0010,0011,088.9510,026.3867,007.5757
581469670,-1788,0202,-0902,0017,0008,0012,090.3266,026.0831,006.6672
581475397,-1789,0212,-0878,0019,0008,0013,091.0541,026.7025,006.4155
581481125,-1781,0216,-0895,0016,0008,0011,089.9829,025.8855,006.8063
581486867,-1782,0223,-0885,0018,0007,0014,090.1401,026.6094,006.9338
581492628,-1776,0243,-0888,0012,0006,0010,089.5330,026.1783,007.1640
581498310,-1802,0235,-0908,0017,0003,0009,088.4543,026.3765,007.8787
581503987,-1787,0214,-0887,0019,0002,0010,089.3937,026.5685,007.3775
581509656,-1771,0214,-0893,0017,0002,0013,090.2329,026.1929,006.7616
581515408,-1788,0241,-0875,0024,0002,0012,090.2144,026.6497,006.9088
581521087,-1779,0234,-0894,0025,0003,0012,088.2805,025.7733,007.7735
581526764,-1791,0223,-0875,0022,0005,0012,089.2767,026.5831,007.4549
581532437,-1777,0219,-0895,0023,0005,0011,089.5184,025.7756,007.0532
581538152,-1796,0209,-0872,0026,0007,0007,090.0510,026.6777,007.0195
581543818,-1791,0210,-0873,0028,0006,0007,090.2461,025.6356,006.5896
581549526,-1792,0207,-0901,0026,0008,0007,090.1707,025.8622,006.6993
581555175,-1778,0218,-0874,0030,0010,0007,090.7668,026.6290,006.5723
581560865,-1772,0213,-0900,0030,0006,0009,089.6178,025.9337,007.0385
581566452,-1801,0218,-0858,0027,0006,0005,090.4477,026.8626,006.8284
581572124,-1788,0200,-0894,0030,0007,0008,089.3992,025.1316,006.9078
581577722,-1795,0207,-0898,0025,0008,0012,091.1717,026.5854,006.3161
581583414,-1771,0224,-0864,0025,0007,0008,090.5857,026.4078,006.6100
581589053,-1782,0216,-0888,0026,0004,0012,089.1306,025.7715,007.2654
581594794,-1779,0222,-0881,0024,0003,0011,090.1638,026.4041,006.8572
581600518,-1788,0221,-0882,0024,0000,0011,089.5309,026.1359,007.1483
581606134,-1788,0208,-0887,0020,-0001,0009,089.6961,026.0765,007.0336
581611744,-1791,0204,-0859,0019,-0003,0011,090.5432,026.2479,006.5886
581617517,-1785,0219,-0882,0020,0004,0009,090.2751,025.3703,006.4851
581623160,-1791,0235,-0908,0020,0000,0010,089.7205,026.2248,007.0635
581628734,-1795,0231,-0878,0018,0004,0010,089.2373,026.7366,007.5200
581634433,-1789,0226,-0895,0018,0004,0011,089.0619,025.7721,007.3108
581640146,-1806,0227,-0886,0023,0007,0010,089.6674,026.4858,007.1839
581645832,-1791,0219,-0888,0023,0006,0008,089.3901,025.8928,007.1605
581651514,-1792,0229,-0920,0024,0008,0006,089.9493,026.2468,006.9441
581657172,-1809,0223,-0878,0028,0008,0005,089.7556,027.0804,007.3209
581662807,-1792,0226,-0918,0028,0005,0006,089.5077,025.5828,006.9952
581668514,-1779,0230,-0866,0029,0003,0008,089.9560,027.1302,007.2126
581674178,-1804,0227,-0878,0030,0009,0007,088.8662,025.6259,007.3803
581679806,-1784,0224,-0877,0029,0006,0010,089.3652,025.7936,007.1463
581685513,-1789,0221,-0908,0026,0003,0009,089.4780,026.0308,007.1567
581691169,-1797,0214,-0884,0027,0005,0011,090.1094,026.8250,007.0268
581696910,-1787,0220,-0860,0030,0009,0014,090.0979,025.9321,006.7601
581702614,-1777,0229,-0864,0029,0007,0014,089.3446,025.4807,007.0519
581708353,-1791,0223,-0901,0027,0006,0016,088.9395,025.7802,007.3830
581714061,-1781,0227,-0906,0028,0005,0015,089.9465,026.6329,007.0585
581719773,-1766,0235,-0881,0030,0005,0016,089.6423,026.7971,007.2924
581725510,-1781,0219,-0873,0026,0004,0015,088.8136,026.2537,007.6157
581731217,-1775,0225,-0899,0033,0003,0016,089.7789,025.9030,006.9317
581736923,-1790,0223,-0894,0027,0003,0013,089.6804,026.7916,007.2677
581742669,-1784,0227,-0894,0029,0003,0014,089.7378,026.3046,007.0785
581748379,-1802,0239,-0878,0031,0002,0013,089.4838,026.4500,007.2746
581754130,-1778,0230,-0888,0031,0006,0017,088.5210,025.6924,007.5932
581759879,-1803,0216,-0872,0030,0006,0014,089.3824,026.4528,007.3360
581765573,-1786,0244,-0903,0031,0007,0017,089.8631,025.5536,006.7709
581771303,-1804,0209,-0878,0033,0008,0018,088.5692,026.7660,007.9312
581777015,-1795,0231,-0858,0031,0010,0018,090.4863,025.6869,006.4504
581782794,-1776,0217,-0872,0034,0013,0020,088.4916,025.3193,007.4694
581788551,-1788,0216,-0877,0034,0013,0017,089.9060,026.0798,006.8958
581794341,-1782,0214,-0885,0036,0016,0013,089.8513,025.9513,006.8856
581800133,-1809,0221,-0878,0040,0015,0011,090.1065,026.3003,006.8386
581805848,-1787,0225,-0883,0041,0014,0012,089.5205,025.6560,006.9780
581811608,-1799,0219,-0864,0036,0009,0009,089.4205,026.1897,007.2035
581817287,-1799,0219,-0869,0036,0007,0005,089.5082,025.4036,006.9033
581822952,-1778,0220,-0881,0034,0004,0008,089.5705,025.6462,006.9422
581828631,-1792,0220,-0889,0031,0006,0010,089.6836,026.2595,007.0667
581834346,-1781,0231,-0887,0032,0003,0005,089.7927,026.2096,006.9857
581840025,-1773,0208,-0896,0028,0003,0006,089.0704,026.2947,007.4420
581845668,-1782,0212,-0894,0028,0000,0007,090.6943,026.6965,006.5934
581851244,-1781,0224,-0876,0031,0001,0008,090.2206,026.4565,006.8027
581856908,-1799,0215,-0874,0024,0002,0009,089.2623,025.9568,007.2131
581862555,-1782,0196,-0918,0020,0005,0009,089.9107,025.7279,006.7671
581868178,-1776,0222,-0907,0023,0000,0009,091.5967,027.2911,006.2121
581873745,-1773,0221,-0883,0017,0002,0014,089.7159,026.8277,007.2250
581879497,-1773,0223,-0878,0025,0005,0015,089.6258,026.2286,007.0904
581885165,-1785,0203,-0871,0025,0007,0014,089.4397,026.1604,007.1788
581890865,-1804,0217,-0931,0024,0006,0016,090.6043,025.8277,006.4001
581896579,-1770,0202,-0900,0030,0004,0014,090.4483,027.2996,006.9192
581902248,-1796,0229,-0906,0033,0005,0011,090.9318,026.7430,006.4591
581908008,-1794,0224,-0885,0029,0003,0007,089.3159,026.5613,007.3742
581913690,-1789,0222,-0870,0028,0003,0008,089.5163,026.0225,007.0831
581919345,-1795,0238,-0894,0028,0003,0008,089.3786,025.7287,007.0704
581924981,-1795,0237,-0878,0024,0004,0004,088.8091,026.3435,007.6089
581930636,-1803,0214,-0887,0024,0003,0009,088.6793,025.8130,007.5100
581936273,-1777,0224,-0889,0021,0007,0009,090.2360,026.0637,006.6822
581941981,-1790,0213,-0892,0019,0005,0009,089.4634,026.4461,007.2574
581947681,-1778,0222,-0893,0021,0009,0009,090.2938,026.3140,006.7236
581953362,-1777,0201,-0868,0024,0004,0005,089.6494,026.5151,007.1686
581958971,-1778,0220,-0887,0027,0002,0007,090.6364,025.8303,006.3834
581964648,-1776,0224,-0870,0025,-0002,0010,089.6255,026.4087,007.1466
581970279,-1777,0217,-0909,0030,0000,0012,089.2556,025.8675,007.1919
581975851,-1782,0220,-0876,0031,0000,0007,090.3009,027.0437,006.9315
581981395,-1781,0222,-0878,0026,0000,0009,089.5209,025.9053,007.0467
581986932,-1772,0196,-0888,0028,0000,0013,089.5057,026.0836,007.1111
581992555,-1786,0221,-0910,0025,0009,0013,091.2335,026.5237,006.2217
581998294,-1790,0223,-0883,0023,0013,0012,089.8140,026.8700,007.1732
582004076,-1802,0227,-0888,0021,0016,0014,089.4784,025.9734,007.0929
582009848,-1794,0232,-0889,0024,0017,0012,089.3632,026.0719,007.1927
582015607,-1813,0250,-0876,0026,0014,0016,089.0857,026.1902,007.3956
582021346,-1791,0230,-0873,0033,0014,0012,087.8191,025.5050,007.9071
582027070,-1798,0230,-0875,0036,0017,0009,089.1839,025.8504,007.2304
582032787,-1797,0221,-0886,0039,0014,0013,089.0189,025.7609,007.2956
582038580,-1795,0219,-0871,0039,0012,0012,089.7797,026.1268,006.9653
582044329,-1765,0233,-0875,0039,0007,0010,089.5506,025.6624,006.9513
582050020,-1779,0210,-0888,0037,0010,0011,088.7855,026.2356,007.5839
582055804,-1759,0230,-0845,0035,0012,0012,090.5245,026.3924,006.5979
582061545,-1762,0219,-0903,0032,0010,0016,088.3978,025.3963,007.5196
582067301,-1754,0212,-0900,0031,0010,0016,090.2075,027.1945,007.0191
582073035,-1764,0221,-0857,0026,0008,0015,090.3255,026.9732,006.8780
582078777,-1766,0217,-0862,0024,0006,0020,089.1257,025.6221,007.1686
582084468,-1785,0225,-0883,0020,0004,0019,089.5690,025.8712,006.9923
582090151,-1766,0200,-0913,0019,0005,0019,089.3571,026.1788,007.2145
582095858,-1788,0215,-0905,0023,0002,0016,091.3531,027.3364,006.3520
582101612,-1783,0205,-0866,0023,0001,0017,090.0463,026.5903,006.9274
582107318,-1787,0211,-0887,0027,0002,0016,090.2713,025.6569,006.5156
582113056,-1773,0222,-0872,0024,-0004,0015,090.1735,026.3247,006.7680
582118773,-1765,0223,-0866,0030,-0001,0018,089.2794,025.9734,007.1828
582124490,-1799,0217,-0881,0032,0000,0014,089.2335,025.9529,007.2022
582130108,-1802,0198,-0878,0028,0000,0011,089.8394,025.9245,006.8397
582135729,-1791,0218,-0861,0027,0000,0008,090.8959,025.8309,006.2032
582141272,-1806,0204,-0899,0021,0006,0009,089.2836,025.4778,007.0171
582146937,-1810,0204,-0896,0018,0005,0009,090.8828,026.4224,006.3737
582152646,-1819,0229,-0886,0018,0005,0007,090.6498,026.1653,006.4367
582158321,-1828,0219,-0882,0015,0009,0008,089.0229,025.7526,007.2581
582163961,-1812,0217,-0905,0020,0006,0007,089.7514,025.5823,006.7873
582169621,-1811,0208,-0898,0017,0006,0005,090.1382,026.4706,006.8327
582175279,-1801,0204,-0913,0018,0004,0004,090.5353,026.1985,006.5191
582180959,-1797,0200,-0885,0019,0006,0001,090.9386,026.8022,006.4521
582186568,-1803,0213,-0912,0017,0007,0005,090.7484,026.0030,006.3386
582192238,-1804,0214,-0873,0017,0006,0005,090.3593,026.7538,006.7851
582197922,-1778,0228,-0889,0014,0008,0009,089.7753,025.5393,006.7637
582203619,-1785,0208,-0883,0012,0012,0006,089.2335,026.5048,007.3885
582209318,-1791,0230,-0883,0016,0017,0007,090.4607,026.1266,006.5472
582215057,-1773,0216,-0876,0017,0017,0010,088.9219,026.0537,007.4289
582220816,-1765,0216,-0880,0016,0018,0010,089.9012,026.1404,006.8828
582226591,-1778,0224,-0889,0019,0017,0009,089.8365,026.3600,006.9896
582232303,-1764,0232,-0881,0023,0014,0008,089.4906,026.3926,007.2068
582238017,-1762,0225,-0898,0026,0013,0002,088.9392,026.3410,007.5222
582243765,-1758,0238,-0893,0026,0014,0001,089.7018,026.8882,007.2389
582249484,-1762,0230,-0894,0026,0010,0007,088.7475,026.7017,007.7640
582255205,-1772,0229,-0880,0024,0007,0004,089.3626,026.7094,007.3931
582260886,-1752,0213,-0884,0017,0006,0004,089.1311,026.1641,007.3586
582266523,-1783,0223,-0912,0018,0005,0009,090.1630,026.6436,006.8948
582272205,-1766,0201,-0900,0018,0007,0012,089.8776,026.9455,007.1610
582277887,-1778,0200,-0885,0015,0004,0016,091.0557,026.8443,006.4157
582283576,-1782,0216,-0889,0019,0007,0020,090.7590,026.2529,006.4226
582289281,-1781,0214,-0868,0023,0002,0017,089.8591,026.3595,006.9824
582295002,-1782,0220,-0868,0025,0001,0018,089.7860,025.7523,006.8374
582300728,-1785,0219,-0884,0029,-0004,0015,089.4163,025.8038,007.0655
582306448,-1788,0219,-0881,0027,-0001,0008,089.7858,026.2288,006.9821
582312132,-1785,0212,-0881,0028,-0003,0012,089.6828,026.0375,006.9823
582317833,-1800,0219,-0895,0026,-0003,0011,090.1319,026.1176,006.7431
582323554,-1797,0206,-0895,0023,0003,0008,089.8495,026.2900,006.9614
582329205,-1807,0238,-0886,0027,0006,0006,090.6743,026.3320,006.4864
582334878,-1804,0215,-0901,0023,0007,0006,088.5047,025.8781,007.6202
582340541,-1801,0208,-0900,0024,0009,0007,090.3734,026.4399,006.6961
582346146,-1813,0231,-0905,0022,0009,0007,090.5564,026.3986,006.5751
582351836,-1788,0235,-0900,0020,0009,0008,089.2392,026.3385,007.3397
582357439,-1786,0222,-0886,0022,0009,0007,089.0834,026.5449,007.5031
582363142,-1786,0235,-0899,0019,0012,0009,089.6775,026.1690,007.0301
582368882,-1783,0212,-0900,0024,0010,0007,089.0096,026.5752,007.5617
582374536,-1778,0234,-0873,0026,0013,0007,090.5003,026.6310,006.6809
582380286,-1790,0234,-0872,0034,0008,0008,088.5325,025.8671,007.6046
582385963,-1767,0220,-0885,0035,0010,0009,088.7880,025.7742,007.4242
582391630,-1774,0218,-0864,0035,0007,0006,089.8124,026.5074,007.0537
582397263,-1777,0221,-0874,0034,0005,0007,089.4941,025.7321,006.9975
582402924,-1776,0217,-0876,0033,0010,0007,089.4954,026.0536,007.0971
582408616,-1787,0219,-0897,0030,0004,0010,089.7682,026.0909,006.9479
582414271,-1799,0216,-0893,0028,0007,0011,089.9250,026.5357,006.9909
582419980,-1788,0210,-0881,0024,0005,0013,090.0240,026.1986,006.8288
582425718,-1769,0231,-0889,0025,0003,0017,090.2000,026.0575,006.6819
582431437,-1788,0206,-0885,0020,0004,0017,089.0020,026.5464,007.5472
582437151,-1776,0219,-0882,0018,0003,0018,090.6450,026.1342,006.4451
582442880,-1791,0203,-0875,0019,0005,0018,089.5636,026.2527,007.1147
582448585,-1769,0208,-0898,0023,0007,0016,090.6116,025.8467,006.3815
582454337,-1795,0230,-0895,0021,0003,0017,090.4827,026.8913,006.7579
582460055,-1794,0209,-0899,0025,0004,0016,089.1223,026.2414,007.3727
582465794,-1777,0240,-0893,0029,0004,0015,090.6434,026.4923,006.5444
582471502,-1786,0219,-0894,0028,0007,0011,088.4505,026.4720,007.8533
582477246,-1791,0211,-0887,0031,0006,0014,090.0565,026.4135,006.8684
582482972,-1787,0218,-0889,0032,0002,0008,090.2166,026.1594,006.6956
582488664,-1762,0219,-0893,0027,0008,0011,089.7869,026.2994,006.9897
582494413,-1777,0209,-0890,0028,0005,0010,089.8419,026.7532,007.0962
582500104,-1779,0219,-0897,0026,0007,0014,090.3978,026.4073,006.6574
582505828,-1778,0216,-0890,0026,0010,0011,089.8091,026.6134,007.0696
582511620,-1785,0223,-0901,0018,0006,0010,089.9739,026.3941,006.9048
582517301,-1777,0232,-0892,0022,0010,0009,089.6911,026.6350,007.1491
582522991,-1779,0216,-0869,0021,0008,0007,089.0476,026.4395,007.4764
582528661,-1794,0226,-0899,0023,0005,0006,089.7568,025.8047,006.8580
582534306,-1784,0216,-0903,0019,0003,0008,089.5206,026.5135,007.2197
582539974,-1781,0218,-0907,0021,0002,0007,090.2124,026.6998,006.8617
582545631,-1786,0219,-0905,0021,0000,0006,090.0626,026.8294,006.9915
582551205,-1787,0214,-0893,0022,0002,0010,089.9919,026.6858,006.9903
582556895,-1788,0207,-0876,0026,0001,0007,090.1294,026.3500,006.8056
582562542,-1797,0225,-0880,0026,0000,0010,090.2888,025.9003,006.5776
582568103,-1811,0218,-0912,0033,0003,0009,089.2338,025.9172,007.1931
582573752,-1801,0231,-0907,0031,0003,0013,090.2273,026.6363,006.8261
582579494,-1776,0222,-0890,0032,0006,0011,089.2660,026.5319,007.3703
582585231,-1796,0233,-0881,0035,0009,0009,089.6816,026.4284,007.0866
582590904,-1799,0211,-0872,0028,0009,0015,088.8045,025.8832,007.4299
582596595,-1792,0225,-0884,0025,0010,0016,090.1404,025.6861,006.5955
582602310,-1775,0238,-0911,0023,0012,0017,089.2727,026.1386,007.2386
582608074,-1779,0223,-0910,0020,0012,0019,089.0242,027.0932,007.7036
582613793,-1778,0221,-0887,0024,0012,0019,089.9405,026.8886,007.0726
582619568,-1778,0219,-0889,0022,0011,0021,089.5831,026.2595,007.0915
582625390,-1783,0217,-0863,0024,0011,0018,089.7974,026.4179,007.0131
582631164,-1781,0204,-0876,0024,0008,0014,089.4842,025.5623,006.9301
582636847,-1790,0214,-0849,0027,0006,0015,090.5422,026.1074,006.4826
582642555,-1789,0211,-0873,0025,0001,0012,089.3543,025.1083,006.8579
582648238,-1788,0201,-0903,0024,0002,0013,090.0760,025.9612,006.7083
582653934,-1783,0210,-0911,0019,0000,0013,091.0242,026.7437,006.3747
582659567,-1772,0217,-0889,0023,0000,0013,090.4666,026.9225,006.7594
582665190,-1801,0218,-0878,0025,0003,0013,089.8025,026.4216,007.0067
582670865,-1777,0232,-0888,0021,0006,0012,089.6515,025.7545,006.8899
582676565,-1758,0201,-0898,0025,0004,0010,088.9627,026.4475,007.5183
582682230,-1777,0219,-0914,0027,0007,0013,091.0478,026.9589,006.4138
582687987,-1791,0216,-0887,0023,0005,0010,089.9415,027.0566,007.1155
582693670,-1774,0229,-0884,0027,0002,0008,089.8892,026.0753,006.8457
582699378,-1786,0234,-0890,0025,0000,0013,089.0440,026.3279,007.4254
582704976,-1788,0212,-0903,0030,0003,0010,088.9545,026.2900,007.4670
582710631,-1770,0225,-0893,0026,0004,0010,090.4822,026.6777,006.6727
582716291,-1787,0229,-0866,0026,0007,0009,089.3642,026.5777,007.3141
582721956,-1782,0225,-0877,0024,0013,0009,088.8327,025.5646,007.3003
582727655,-1807,0218,-0880,0022,0014,0011,089.3342,026.0938,007.1818
582733448,-1795,0229,-0889,0020,0014,0011,089.7534,025.7656,006.8367
582739215,-1796,0236,-0875,0023,0010,0008,089.1537,026.2255,007.3338
582744891,-1821,0223,-0871,0026,0012,0010,088.5895,025.7303,007.5041
582750630,-1799,0229,-0873,0030,0011,0012,089.4045,025.3575,006.9154
582756394,-1792,0230,-0892,0036,0006,0010,088.9520,025.7587,007.3022
582762066,-1796,0219,-0913,0039,0011,0012,089.2559,026.3475,007.3128
582767839,-1799,0228,-0882,0037,0005,0014,090.1919,026.8382,006.8991
582773547,-1795,0224,-0893,0037,0006,0016,089.0435,025.8266,007.2623
582779297,-1778,0210,-0902,0036,0004,0015,089.6092,026.3388,007.0907
582785009,-1788,0221,-0874,0034,0011,0018,090.5123,026.7999,006.6858
582790824,-1765,0231,-0903,0030,0015,0022,089.2527,025.7422,007.1043
582796552,-1765,0221,-0885,0028,0015,0025,089.2829,027.0761,007.5147
582802285,-1776,0216,-0895,0033,0015,0024,089.6037,026.3830,007.0961
582808030,-1763,0215,-0856,0030,0018,0023,090.0225,026.6118,006.9136
582813801,-1777,0215,-0862,0032,0014,0021,089.4365,025.6504,006.9592
582819568,-1764,0212,-0896,0035,0005,0020,089.5884,025.7236,006.8920
582825239,-1789,0226,-0878,0042,0001,0022,090.2530,026.8927,006.8485
582830976,-1786,0233,-0883,0041,-0005,0025,089.0162,025.8321,007.2492
582836700,-1774,0208,-0858,0039,-0005,0027,088.8279,026.1545,007.4624
582842459,-1784,0219,-0863,0036,-0007,0031,089.9966,025.5969,006.6042
582848189,-1779,0213,-0819,0028,-0015,0033,089.2209,025.6470,007.0597
582853926,-1788,0219,-0818,0022,-0024,0033,088.9811,024.4597,006.8156
582859720,-1773,0238,-0843,0016,-0033,0030,088.5869,024.4028,007.0113
582865454,-1771,0243,-0860,0009,-0048,0029,087.8558,025.3061,007.7284
582871173,-1777,0227,-0872,0012,-0062,0031,087.9283,025.7111,007.8313
582876989,-1770,0249,-0889,0022,-0065,0030,089.1446,025.9638,007.2025
582882735,-1766,0247,-0914,0043,-0068,0040,087.8760,026.4875,008.1336
582888487,-1745,0245,-0949,0065,-0077,0046,088.5772,027.2083,007.9387
582894338,-1752,0237,-0927,0081,-0096,0063,089.0965,028.4654,008.0076
582900086,-1774,0219,-0955,0088,-0110,0064,089.1017,027.5211,007.6676
582905905,-1764,0235,-0995,0090,-0117,0068,090.4953,028.1594,006.9466
582911694,-1800,0229,-1018,0095,-0118,0068,089.8739,029.3176,007.6858
582917481,-1769,0222,-1018,0086,-0109,0076,090.4897,029.2496,007.2130
582923334,-1741,0251,-1025,0083,-0074,0086,090.7445,029.7652,007.1587
582929149,-1721,0259,-1007,0079,-0044,0098,089.2253,030.2821,008.3796
582934962,-1712,0275,-1002,0067,-0021,0105,088.7461,030.0118,008.6128
582940761,-1722,0289,-0969,0052,0014,0109,087.8742,030.0300,009.2406
582946560,-1723,0286,-0936,0041,0044,0110,086.7481,028.8999,009.6052
582952364,-1728,0280,-0880,0041,0052,0109,086.5284,028.1205,009.4397
582958161,-1755,0277,-0872,0039,0049,0109,085.9166,026.5970,009.2230
582963970,-1770,0262,-0901,0034,0034,0106,085.9882,026.0987,008.9755
582969780,-1792,0256,-0895,0034,0015,0107,087.4196,026.8365,008.3651
582975570,-1784,0258,-0907,0033,-0005,0109,087.4263,026.2313,008.1340
582981318,-1794,0257,-0931,0039,-0023,0114,087.4888,026.7694,008.2802
582987124,-1792,0263,-0944,0047,-0043,0124,087.8985,027.2324,008.1737
582992918,-1781,0266,-0974,0046,-0048,0128,087.6758,027.5497,008.4142
582998722,-1778,0277,-0935,0049,-0044,0132,087.9695,028.5111,008.5482
583004565,-1798,0280,-0929,0047,-0039,0130,086.6696,027.2908,008.9397
583010389,-1797,0282,-0910,0044,-0019,0125,086.5732,027.0047,008.8805
583016160,-1828,0269,-0946,0036,0009,0117,086.1363,026.5250,008.9634
583021900,-1835,0261,-0896,0028,0036,0103,087.5077,027.1869,008.3456
583027708,-1856,0247,-0932,0021,0054,0092,087.0031,025.6628,008.1009
583033508,-1851,0262,-0906,0010,0071,0070,088.4571,026.5752,007.5522
583039224,-1869,0231,-0948,0005,0075,0050,087.0795,025.8178,008.1225
583044927,-1873,0212,-0917,0001,0075,0030,089.5609,026.8172,006.9752
583050612,-1861,0209,-0883,-0003,0075,0017,090.0394,025.9077,006.4306
583056303,-1844,0213,-0927,-0005,0079,0001,089.7377,025.2126,006.4083
583061974,-1809,0197,-0931,0002,0084,-0010,090.1586,026.7001,006.6047
583067659,-1799,0204,-0913,0005,0088,-0023,091.1215,027.1728,006.1622
583073368,-1777,0203,-0893,0011,0090,-0027,090.3835,026.7434,006.4961
583079136,-1764,0207,-0896,0018,0092,-0033,090.2801,026.5354,006.5054
583084913,-1735,0212,-0884,0020,0080,-0027,090.0980,026.8329,006.7060
583090647,-1742,0220,-0885,0015,0062,-0033,089.6806,026.8501,006.9719
583096390,-1733,0196,-0859,0003,0044,-0031,089.2643,026.7553,007.2064
583102146,-1721,0220,-0883,-0006,0037,-0031,090.3566,026.2058,006.4036
583107885,-1703,0213,-0868,-0022,0029,-0032,089.2420,027.0304,007.3348
583113684,-1712,0208,-0853,-0032,0026,-0030,089.5213,026.8281,007.1184
583119459,-1740,0223,-0837,-0043,0021,-0026,089.6156,026.3092,006.9213
583125215,-1741,0216,-0831,-0047,0015,-0026,088.5046,025.4675,007.3210
583130988,-1775,0231,-0833,-0049,0006,-0025,088.9274,025.3364,007.0581
583136686,-1769,0239,-0851,-0049,-0001,-0028,088.0288,024.9144,007.4456
583142388,-1777,0246,-0856,-0043,-0013,-0029,087.9675,025.5398,007.7172
583148174,-1781,0265,-0827,-0049,-0020,-0030,087.6620,025.4907,007.9005
583153868,-1796,0245,-0845,-0053,-0027,-0034,086.0317,024.5684,008.5147
583159656,-1824,0238,-0860,-0065,-0029,-0034,087.9260,025.0431,007.6460
583165394,-1844,0243,-0877,-0077,-0022,-0033,088.3979,025.0436,007.4070
583171210,-1854,0211,-0855,-0087,-0018,-0041,088.3808,025.2562,007.5193
583176980,-1864,0196,-0884,-0099,-0009,-0047,090.0889,024.5329,006.3743
583182722,-1867,0202,-0892,-0105,0005,-0048,091.3085,025.3239,005.9620
583188460,-1875,0177,-0874,-0114,0017,-0050,090.9847,025.4152,006.1979
583194277,-1869,0181,-0898,-0123,0033,-0063,092.4104,024.8427,005.3022
583200083,-1893,0173,-0870,-0132,0046,-0070,092.3740,025.6528,005.5557
583205857,-1886,0153,-0880,-0142,0055,-0078,092.6047,024.5122,005.1877
583211632,-1888,0149,-0852,-0149,0062,-0081,094.0387,025.0031,004.5764
583217433,-1861,0145,-0857,-0169,0074,-0089,093.9173,024.1603,004.5011
583223277,-1891,0119,-0841,-0188,0087,-0093,094.3454,024.7572,004.4464
583229112,-1884,0144,-0873,-0209,0104,-0096,095.9618,023.8741,003.5047
583234945,-1866,0139,-0865,-0229,0117,-0097,094.5334,024.9507,004.4832
583240795,-1871,0137,-0853,-0247,0125,-0097,095.0542,024.8322,004.2392
583246618,-1870,0143,-0853,-0262,0138,-0097,095.1091,024.4486,004.1918
583252459,-1893,0148,-0869,-0266,0150,-0101,094.8271,024.5081,004.4063
583258276,-1856,0173,-0878,-0271,0164,-0108,094.8473,024.6559,004.4856
583264119,-1849,0180,-0833,-0276,0176,-0115,093.4641,025.3575,005.4496
583269981,-1846,0181,-0844,-0280,0186,-0127,092.7236,024.0426,005.5780
583275846,-1856,0201,-0822,-0295,0187,-0139,093.0873,024.5935,005.6040
583281679,-1845,0209,-0839,-0314,0195,-0157,091.5212,023.7128,006.2548
583287544,-1818,0221,-0828,-0331,0199,-0167,091.6666,024.4730,006.4916
583293372,-1822,0211,-0828,-0353,0208,-0179,090.8404,024.3690,006.9970
583299260,-1810,0211,-0820,-0365,0209,-0190,091.8735,024.3481,006.5330
583305086,-1800,0197,-0853,-0371,0210,-0198,091.7746,024.2721,006.6590
583310917,-1790,0187,-0832,-0366,0208,-0205,093.4974,025.4545,006.1637
583316791,-1765,0208,-0793,-0354,0201,-0208,093.7718,024.7846,005.9220
583322622,-1766,0216,-0828,-0339,0192,-0208,091.9681,024.0534,006.7570
583328463,-1741,0222,-0804,-0328,0177,-0213,092.3498,025.1096,006.9757
583334316,-1738,0219,-0820,-0332,0160,-0205,091.7175,024.6325,007.2625
583340128,-1770,0220,-0833,-0349,0146,-0199,092.3675,025.1466,007.1655
583345994,-1746,0235,-0839,-0369,0137,-0191,092.6581,025.0545,007.0706
583351835,-1761,0230,-0824,-0394,0132,-0178,091.9722,025.5308,007.7247
583357676,-1755,0235,-0860,-0410,0132,-0171,092.2770,024.8609,007.4263
583363501,-1772,0246,-0851,-0414,0128,-0164,092.7512,026.0571,007.6681
583369350,-1750,0249,-0850,-0414,0124,-0161,092.0493,025.3822,007.9517
583375113,-1734,0259,-0827,-0403,0114,-0156,092.1405,025.7279,008.1283
583380963,-1757,0289,-0844,-0397,0101,-0155,091.3177,025.2377,008.5327
583386810,-1728,0298,-0857,-0394,0091,-0153,090.0477,025.3828,009.4537
583392652,-1736,0295,-0866,-0385,0088,-0146,090.1244,026.1123,009.8337
583398501,-1739,0338,-0874,-0371,0087,-0139,090.6600,026.2020,009.6439
583404307,-1733,0336,-0868,-0355,0086,-0133,088.4798,026.2697,011.1840
583410243,-1703,0352,-0877,-0334,0081,-0127,088.9118,026.1758,010.9629
583416150,-1707,0352,-0907,-0315,0071,-0124,088.3537,026.8180,011.7637
583422017,-1726,0359,-0887,-0297,0063,-0117,089.2073,027.5686,011.6554
583427864,-1740,0371,-0880,-0278,0057,-0107,088.4584,026.6053,011.7753
583433753,-1725,0353,-0901,-0260,0053,-0101,087.8703,026.2710,012.0875
583439612,-1693,0362,-0893,-0242,0055,-0091,089.5560,027.2132,011.5070
583445446,-1734,0340,-0925,-0228,0056,-0081,088.8325,027.2900,012.1304
583451267,-1738,0339,-0922,-0214,0057,-0070,090.9006,027.6859,010.9516
583457127,-1749,0317,-0949,-0197,0064,-0059,090.6800,027.4825,011.0709
583463002,-1751,0337,-0940,-0176,0060,-0046,092.5527,028.2098,010.1583
583468824,-1753,0327,-0947,-0155,0057,-0041,091.0694,027.7407,011.0246
583474707,-1761,0313,-0897,-0131,0052,-0027,092.0500,028.0167,010.5094
583480591,-1731,0326,-0939,-0109,0053,-0021,091.7572,026.4207,010.0254
583486464,-1733,0320,-0933,-0089,0050,-0017,091.9512,028.3760,010.8009
583492306,-1748,0324,-0958,-0077,0049,-0010,092.1724,027.8353,010.4249
583498229,-1736,0321,-0947,-0064,0051,-0005,092.4214,028.4180,010.5288
583504020,-1764,0326,-0981,-0056,0053,-0001,092.3666,028.1913,010.4820
583509801,-1733,0328,-0937,-0045,0050,0001,092.7325,028.7503,010.4815
583515514,-1735,0320,-0949,-0040,0048,0006,091.8044,027.8908,010.7612
583521259,-1719,0294,-0960,-0030,0049,0009,092.6036,028.3476,010.4154
583527025,-1734,0295,-0955,-0022,0045,0016,094.0723,028.9123,009.6185
583532794,-1723,0310,-0957,-0010,0039,0019,093.7229,028.4498,009.6722
583538570,-1717,0297,-0944,0000,0039,0025,092.9881,028.7075,010.2908
583544221,-1728,0296,-0968,0006,0040,0030,093.5398,028.4342,009.7802
583549879,-1737,0276,-0948,0016,0035,0033,093.9211,028.9800,009.7233
583555663,-1722,0292,-0968,0028,0033,0040,094.6099,028.2410,008.9397
583561410,-1727,0290,-0961,0034,0029,0049,093.9205,029.1225,009.7433
583567218,-1725,0285,-0989,0040,0026,0050,093.9821,028.7106,009.5128
583573002,-1718,0299,-0955,0038,0020,0048,094.6519,029.6278,009.3723
583578757,-1731,0267,-0977,0032,0022,0046,093.2435,028.6015,009.9468
583584566,-1734,0262,-0982,0032,0023,0043,095.5063,029.2498,008.5884
583590359,-1729,0256,-0957,0023,0020,0039,095.4557,029.2534,008.6044
583596131,-1742,0222,-0971,0018,0021,0033,095.3967,028.6333,008.4080
583601936,-1747,0228,-0969,0015,0021,0027,097.4891,028.9933,007.0893
583607718,-1737,0222,-0957,0013,0027,0022,096.7679,028.7924,007.4943
583613550,-1751,0233,-0960,0012,0025,0014,097.0321,028.6433,007.2542
583619312,-1757,0222,-0977,0001,0031,0013,096.3814,028.5148,007.6332
583625050,-1776,0231,-0991,0005,0035,0016,097.2819,028.9464,007.1481
583630773,-1771,0233,-0976,0006,0039,0013,096.8270,028.9716,007.4468
583636512,-1787,0227,-0987,0007,0043,0014,096.5559,028.6269,007.5067
583642230,-1752,0234,-0956,0012,0040,0010,097.0266,028.7430,007.2122
583647977,-1753,0238,-0964,0016,0034,0004,096.1508,028.3713,007.6628
583653715,-1741,0234,-0970,0015,0027,-0003,096.1412,028.6258,007.7379
583659434,-1719,0227,-0948,0010,0023,-0009,096.4262,028.9538,007.6382
583665199,-1733,0231,-0958,0003,0017,-0013,096.4609,028.6397,007.5050
583670963,-1729,0232,-0980,-0004,0012,-0016,096.3503,028.7340,007.6000
583676696,-1721,0235,-0940,-0005,0007,-0015,096.5866,029.4156,007.6443
583682387,-1689,0247,-0949,-0003,0004,-0008,095.8516,028.3328,007.7852
583688025,-1690,0264,-0956,0002,0000,-0001,095.3903,029.1110,008.3495
583693542,-1676,0305,-0965,0012,-0007,0008,094.6303,029.1996,008.8999
583699203,-1666,0295,-0981,0026,-0016,0017,092.7083,029.5446,010.4097
583705091,-1677,0329,-0958,0038,-0022,0026,093.5678,030.1551,010.0039
583710939,-1651,0340,-0983,0052,-0033,0033,091.3671,029.1789,011.2018
583716812,-1691,0341,-0982,0062,-0041,0044,091.4211,030.3417,011.6832
583722687,-1678,0339,-0977,0077,-0049,0050,091.3068,029.5372,011.3630
583728503,-1673,0345,-1002,0088,-0054,0056,091.2879,029.7164,011.4292
583734362,-1684,0364,-0994,0105,-0055,0063,091.3707,030.4764,011.6838
583740186,-1699,0346,-0965,0135,-0054,0069,090.2201,029.8986,012.2647
583746066,-1714,0355,-0983,0167,-0059,0077,090.6891,028.9741,011.3993
583751933,-1733,0363,-0929,0186,-0057,0079,090.4052,029.3671,011.7426
583757794,-1736,0346,-0957,0192,-0064,0083,088.8654,027.4119,011.8348
583763646,-1749,0327,-0985,0185,-0073,0084,090.5087,028.5478,011.1662
583769505,-1774,0317,-0972,0171,-0061,0100,091.6407,029.0181,010.5017
583775314,-1779,0290,-1013,0152,-0036,0120,091.6616,028.2494,010.0998
583781218,-1795,0255,-0987,0143,-0006,0133,093.6291,029.4993,009.1560
583786979,-1810,0238,-0974,0144,0017,0144,094.6809,028.4792,008.0039
583792813,-1801,0220,-0972,0159,0041,0145,095.2087,028.0556,007.4559
583798643,-1797,0216,-0937,0181,0050,0139,096.0111,028.2210,006.9188
583804457,-1822,0181,-0944,0195,0052,0126,095.5687,027.2856,006.8574
583810337,-1796,0169,-0925,0200,0050,0111,097.6583,027.2978,005.5153
583816069,-1807,0171,-0903,0201,0044,0094,097.7590,027.1504,005.3549
583821858,-1788,0174,-0912,0185,0036,0079,097.2586,026.3744,005.4084
583827692,-1794,0150,-0908,0160,0032,0055,097.1568,027.0208,005.5726
583833462,-1753,0151,-0931,0124,0030,0034,098.5342,026.7420,004.6568
583839243,-1765,0136,-0914,0090,0028,0016,098.4406,028.0694,004.9510
583845002,-1749,0141,-0889,0056,0026,-0005,099.1531,027.2177,004.3226
583850739,-1755,0148,-0895,0027,0023,-0022,098.4941,026.8455,004.6206
583856528,-1765,0136,-0927,0001,0018,-0038,098.1614,026.9538,004.8283
583862267,-1759,0125,-0910,-0020,0009,-0054,099.2542,027.7429,004.3242
583867966,-1754,0127,-0898,-0039,0002,-0065,099.6119,027.2439,004.0191
583873686,-1750,0113,-0918,-0055,-0007,-0074,099.3543,027.0246,004.1350
583879371,-1749,0141,-0910,-0068,-0016,-0082,100.4021,027.6853,003.6279
583885164,-1727,0154,-0939,-0085,-0028,-0088,098.5320,027.3638,004.7051
583890953,-1725,0163,-0937,-0105,-0030,-0090,098.2756,028.5483,005.1279
583896712,-1710,0200,-0954,-0118,-0024,-0088,097.7991,028.3729,005.4147
583902450,-1721,0223,-0924,-0137,-0012,-0084,095.9922,029.0400,006.7940
583908293,-1734,0251,-0972,-0156,0001,-0080,094.5544,027.9203,007.4439
583914010,-1741,0256,-0943,-0168,0013,-0076,093.8654,029.1814,008.3660
583919841,-1742,0281,-0949,-0187,0026,-0074,093.3323,028.0331,008.3764
583925666,-1746,0280,-0913,-0193,0031,-0071,092.1787,028.3092,009.3091
583931465,-1782,0278,-0930,-0194,0037,-0071,091.9094,027.1742,009.0975
583937279,-1763,0287,-0910,-0192,0041,-0069,092.4536,027.2942,008.8463
583943159,-1763,0292,-0925,-0191,0036,-0077,091.5861,026.9450,009.3234
583948951,-1788,0307,-0934,-0197,0038,-0076,091.8169,027.4318,009.4282
583954752,-1769,0306,-0917,-0203,0039,-0075,091.2100,027.2140,009.7978
583960525,-1803,0301,-0931,-0213,0040,-0074,091.1372,027.0329,009.8310
583966295,-1798,0274,-0918,-0219,0041,-0076,091.7875,026.9836,009.4500
583972150,-1823,0265,-0912,-0224,0038,-0073,093.1236,026.7507,008.5684
583977939,-1803,0263,-0912,-0222,0034,-0066,093.4441,026.2869,008.2536
583983748,-1790,0267,-0934,-0216,0028,-0070,093.6235,026.6277,008.3211
583989519,-1801,0252,-0950,-0209,0021,-0065,093.8218,027.3831,008.5237
583995270,-1784,0248,-0979,-0193,0017,-0066,094.9634,027.5990,007.9124
584001075,-1790,0244,-0948,-0173,0015,-0072,095.5442,028.6482,007.9232
584006880,-1755,0264,-0932,-0155,0011,-0074,095.3202,027.5593,007.7456
584012736,-1748,0281,-0969,-0133,0005,-0072,093.9960,027.7220,008.6926
584018509,-1752,0294,-0939,-0119,0004,-0071,093.9163,028.8332,009.1982
584024253,-1718,0326,-0920,-0109,0007,-0068,092.7791,027.7210,009.5661
584029973,-1714,0352,-0944,-0110,0020,-0057,090.9346,027.7488,010.8700
584035831,-1751,0351,-0930,-0107,0031,-0044,090.2505,028.4416,011.7295
584041689,-1758,0375,-0939,-0100,0038,-0029,090.1834,027.3695,011.2861
584047470,-1777,0367,-0954,-0090,0049,-0017,089.1641,027.6201,012.1641
584053261,-1784,0381,-0955,-0075,0058,0001,090.0632,027.7615,011.6247
584059023,-1766,0385,-0945,-0058,0060,0011,089.3016,027.6325,012.1246
584064860,-1784,0373,-0911,-0044,0061,0020,089.0119,027.6142,012.3437
584070673,-1775,0361,-0912,-0033,0062,0022,088.9874,026.4396,011.7590
584076522,-1767,0362,-0920,-0026,0056,0027,089.6916,026.7860,011.4738
584082365,-1784,0313,-0939,-0020,0056,0041,089.7122,027.0790,011.6174
584088173,-1783,0312,-0944,-0013,0059,0050,092.7382,027.4654,009.7488
584093971,-1788,0307,-0955,-0007,0057,0062,092.4557,027.5725,009.9782
584099727,-1779,0288,-0931,0001,0064,0071,092.9381,027.8084,009.7445
584105450,-1774,0262,-0930,0015,0070,0079,093.4804,027.2863,009.1596
584111211,-1798,0257,-0935,0032,0071,0082,094.8415,027.4561,008.3231
584117009,-1765,0252,-0929,0047,0071,0084,094.9736,027.2383,008.1361
584122792,-1762,0253,-0893,0064,0063,0076,095.1110,027.5918,008.1431
584128576,-1745,0264,-0876,0073,0053,0069,094.3965,026.5364,008.1895
584134377,-1735,0252,-0900,0079,0045,0060,093.5122,026.4023,008.6578
584140122,-1742,0255,-0888,0077,0039,0052,094.6657,027.2713,008.2286
584145935,-1740,0256,-0883,0073,0033,0041,094.1320,026.7244,008.3417
584151738,-1764,0237,-0885,0063,0021,0027,094.0137,026.6618,008.3714
584157559,-1771,0229,-0912,0057,0018,0028,095.1768,026.4137,007.5523
584163348,-1776,0228,-0899,0050,0012,0030,095.8853,027.1612,007.3399
584169113,-1786,0212,-0917,0047,0004,0034,095.5884,026.5878,007.3164
584174846,-1788,0191,-0900,0051,-0005,0036,096.8106,027.0717,006.6969
584180564,-1751,0200,-0910,0049,-0013,0038,097.6341,026.5184,006.0237
584186323,-1783,0202,-0890,0054,-0015,0038,097.0606,027.4069,006.5846
584192110,-1775,0205,-0889,0053,-0017,0027,096.6889,026.2239,006.4464
584197906,-1777,0228,-0915,0045,-0018,0022,096.4996,026.4793,006.6091
584203697,-1748,0228,-0902,0032,-0017,0014,095.4635,027.1373,007.4213
584209509,-1784,0233,-0890,0017,-0013,0007,095.3993,027.0858,007.4316
584215272,-1762,0226,-0906,0006,-0004,0001,094.8983,026.2082,007.4415
584220883,-1745,0234,-0896,-0014,0003,-0005,095.6190,027.1167,007.2936
584226566,-1773,0219,-0898,-0019,0005,-0006,094.9208,026.9565,007.6716
584232226,-1764,0233,-0905,-0019,0010,-0013,095.9240,026.6526,006.9601
584238007,-1753,0232,-0912,-0020,0010,-0016,095.0431,027.0060,007.6090
584243724,-1782,0218,-0909,-0017,0015,-0021,095.3405,027.3202,007.5253
584249523,-1775,0237,-0894,-0016,0021,-0023,096.1019,026.7901,006.8884
584255322,-1783,0245,-0919,-0022,0029,-0035,094.5953,026.4962,007.7091
584261096,-1765,0241,-0917,-0030,0033,-0038,094.7590,027.1406,007.8325
584266829,-1752,0235,-0898,-0044,0028,-0041,094.9506,027.2581,007.7603
584272613,-1738,0228,-0893,-0056,0021,-0042,094.9981,026.8928,007.6198
584278398,-1753,0234,-0917,-0068,0020,-0041,095.3445,027.0082,007.4566
584284131,-1733,0220,-0897,-0076,0020,-0039,095.3360,027.4627,007.6238
584289919,-1748,0236,-0917,-0087,0021,-0035,095.8742,027.1542,007.2034
584295698,-1729,0234,-0909,-0094,0020,-0032,095.1929,027.5130,007.7637
584301461,-1754,0243,-0924,-0090,0023,-0030,095.3084,027.5209,007.7093
584307210,-1745,0254,-0903,-0084,0019,-0024,095.0195,027.5614,007.9219
584313015,-1718,0257,-0906,-0077,0015,-0025,094.1197,027.0591,008.3328
584318767,-1718,0282,-0902,-0071,0008,-0030,094.1383,027.5817,008.5257
584324440,-1682,0299,-0924,-0078,0000,-0033,092.7330,027.3672,009.3789
584330082,-1661,0307,-0920,-0079,0002,-0033,092.3410,028.4430,010.1130
584335889,-1676,0314,-0915,-0083,0000,-0039,091.9269,028.5701,010.4861
584341590,-1667,0315,-0930,-0087,0002,-0044,091.5486,028.1991,010.6162
584347388,-1666,0318,-0939,-0088,0001,-0044,091.8098,028.7494,010.7067
584353167,-1672,0317,-0945,-0085,0006,-0044,091.8417,028.9746,010.8133
584358918,-1679,0314,-0950,-0082,0000,-0041,092.0276,029.0380,010.7327
584364575,-1706,0335,-0948,-0081,-0005,-0032,092.2767,029.0728,010.5902
584370375,-1717,0322,-0945,-0079,-0009,-0026,091.1580,028.5317,011.1796
584376185,-1733,0313,-0964,-0078,-0013,-0020,091.9669,028.3803,010.5548
584382074,-1740,0321,-0967,-0079,-0019,-0011,092.7209,028.7352,010.1946
584387923,-1754,0316,-1004,-0066,-0019,-0002,092.2384,028.6296,010.5070
584393726,-1771,0326,-0949,-0064,-0012,0005,093.2071,029.4881,010.1877
584399507,-1765,0343,-1007,-0056,-0006,0005,091.6454,027.5768,010.4725
584405237,-1791,0338,-0980,-0049,0000,0007,092.0066,029.4542,011.0784
584410869,-1800,0352,-0999,-0037,0007,0003,091.7828,028.1759,010.6684
584416637,-1800,0366,-0969,-0025,0010,0003,091.4541,028.6160,011.1130
584422356,-1823,0350,-0957,-0013,0009,0002,090.2888,027.7398,011.5318
584428075,-1794,0354,-0958,-0003,0009,-0002,090.9819,027.2340,010.8134
584433767,-1789,0350,-0945,0003,0007,-0004,090.7466,027.6929,011.1971
584439383,-1785,0370,-0977,0010,0010,0004,090.7306,027.3777,011.0584
584445115,-1782,0353,-0979,0016,0005,0006,090.3283,028.2806,011.7847
584450841,-1741,0368,-0951,0019,0013,0013,091.2423,028.3280,011.1457
584456725,-1761,0357,-0967,0025,0019,0020,089.7961,028.0929,012.0703
584462483,-1766,0348,-0958,0029,0025,0030,090.8864,028.3214,011.3893
584468311,-1767,0313,-0927,0035,0033,0038,091.0267,027.9945,011.1238
584474143,-1763,0330,-0946,0031,0035,0043,092.2974,027.2337,009.9014
584479923,-1764,0323,-0956,0037,0036,0044,091.5163,027.9062,010.7170
584485780,-1767,0309,-0967,0031,0037,0046,092.1697,028.0990,010.3379
584491605,-1750,0295,-0929,0028,0037,0046,092.9898,028.3743,009.8732
584497379,-1761,0291,-0945,0030,0037,0045,092.9531,027.5362,009.5378
584503113,-1737,0267,-0942,0027,0036,0042,093.4355,027.9620,009.3741
584508943,-1746,0267,-0952,0027,0038,0037,094.6487,028.2417,008.6496
584514751,-1716,0252,-0930,0028,0035,0033,094.5926,028.3496,008.7101
584520547,-1724,0259,-0929,0025,0036,0026,095.0632,028.1979,008.3244
584526330,-1718,0237,-0947,0026,0036,0022,094.5858,028.0488,008.5733
584532133,-1692,0252,-0945,0023,0037,0017,096.1120,028.7220,007.7682
584537930,-1709,0224,-0917,0023,0035,0013,095.0798,028.9458,008.5320
584543690,-1709,0232,-0909,0024,0037,0006,096.2611,027.9689,007.4011
584549403,-1695,0239,-0935,0026,0028,0003,095.6141,027.7912,007.7461
584555138,-1722,0241,-0945,0018,0021,-0004,095.6122,028.7109,008.0409
584560902,-1736,0245,-0959,0009,0015,-0007,095.6224,028.5053,007.9545
584566574,-1782,0244,-0946,-0008,0006,-0014,095.5836,028.7009,008.0400
584572232,-1736,0250,-0934,-0021,0006,-0023,095.4580,027.6413,007.7677
584577922,-1767,0239,-0922,-0037,0013,-0031,094.9672,028.0842,008.2422
584583713,-1769,0227,-0927,-0047,0013,-0038,095.4978,027.2339,007.6200
584589514,-1770,0226,-0940,-0059,0021,-0048,096.2270,027.5020,007.2575
584595294,-1769,0182,-0959,-0075,0025,-0055,096.3809,027.8249,007.2733
584601037,-1784,0205,-0948,-0090,0037,-0063,099.1552,028.4145,005.6729
584606819,-1776,0203,-0934,-0089,0041,-0065,097.3437,027.7617,006.6667
584612585,-1762,0215,-0939,-0074,0042,-0072,097.5646,027.5729,006.4877
584618384,-1763,0230,-0944,-0071,0037,-0079,096.9151,027.9359,007.0155
584624179,-1777,0218,-0926,-0066,0037,-0085,096.2413,027.9794,007.4772
584630034,-1753,0243,-0935,-0055,0030,-0086,096.8267,027.2578,006.8974
584635782,-1767,0251,-0952,-0050,0026,-0086,095.4168,027.9451,008.0246
584641531,-1755,0284,-0964,-0051,0019,-0087,095.4481,028.0958,008.0696
584647306,-1760,0301,-0927,-0048,0008,-0089,093.8270,028.5197,009.3331
584653031,-1746,0313,-0925,-0050,-0002,-0081,092.5253,027.2903,009.7309
584658686,-1738,0316,-0934,-0044,-0006,-0077,092.0291,027.5657,010.1997
584664454,-1724,0337,-0920,-0030,-0006,-0074,092.1283,027.9053,010.2974
584670237,-1715,0350,-0945,-0020,-0006,-0065,090.7367,027.6017,011.1348
584675943,-1698,0361,-0954,-0009,-0009,-0064,090.7353,028.4562,011.5634
584681691,-1710,0385,-0985,0007,-0006,-0056,090.3640,028.8264,012.0319
584687414,-1710,0403,-0948,0019,-0005,-0047,089.8115,029.4038,012.7614
584693231,-1739,0406,-0997,0035,-0010,-0032,088.2371,028.1913,013.3139
584699031,-1726,0459,-0960,0065,-0006,-0021,089.3246,029.3138,013.0942
584704787,-1767,0460,-0949,0100,-0010,-0008,085.8868,028.1220,015.0998
584710505,-1766,0481,-0969,0129,-0011,0008,086.0194,027.4011,014.5178
584716302,-1767,0487,-0927,0158,-0023,0020,085.4528,027.9612,015.2988
584722142,-1795,0479,-0939,0183,-0035,0035,084.1978,026.6890,015.3982
584728019,-1752,0470,-0931,0203,-0043,0055,084.9630,026.8293,014.8651
584733843,-1737,0458,-0933,0211,-0049,0068,085.0314,027.2171,015.0220
584739706,-1733,0447,-0929,0232,-0051,0086,085.5765,027.4833,014.7163
584745563,-1711,0411,-0936,0245,-0057,0102,085.8408,027.4233,014.4114
584751456,-1718,0375,-0946,0279,-0063,0124,087.6793,028.1063,013.3422
584757311,-1724,0352,-0954,0322,-0077,0145,089.3118,028.3010,012.1311
584763194,-1687,0325,-0923,0367,-0087,0170,090.2486,028.4864,011.4220
584769052,-1694,0330,-0926,0418,-0096,0192,090.6904,028.2177,010.8464
584774903,-1691,0332,-0898,0462,-0113,0213,090.2249,028.2030,011.0244
584780792,-1670,0316,-0918,0488,-0124,0224,089.4003,027.4590,011.0984
584786680,-1688,0335,-0890,0505,-0149,0231,090.4203,028.4102,010.6690
584792560,-1690,0351,-0880,0515,-0167,0235,088.5948,027.2525,011.2406
584798457,-1698,0327,-0882,0517,-0179,0241,087.4139,026.9644,011.7533
584804375,-1709,0330,-0864,0515,-0181,0239,088.5835,026.9932,010.8179
584810295,-1711,0293,-0901,0505,-0174,0229,087.7147,026.3172,010.9240
584816220,-1713,0275,-0898,0497,-0164,0204,090.3984,027.5229,009.5520
584822044,-1718,0227,-0882,0483,-0153,0181,090.8259,027.3201,009.0531
584827887,-1763,0182,-0912,0463,-0142,0154,093.0309,026.9159,007.3882
584833741,-1778,0129,-0888,0442,-0135,0137,095.8883,027.2385,005.6161
584839606,-1809,0088,-0885,0412,-0126,0123,098.3128,026.3235,003.8980
584845422,-1823,0027,-0882,0380,-0124,0102,100.4014,025.9542,002.5835
584851256,-1852,0000,-0872,0342,-0118,0087,103.9488,025.7452,000.5577
584856901,-1831,-0035,-0885,0297,-0113,0078,104.9834,025.1152,-000.0779
584862699,-1832,-0055,-0892,0260,-0103,0071,107.0400,025.8438,-001.2664
584868483,-1842,-0069,-0892,0216,-0099,0061,107.8716,025.9213,-001.7985
584874302,-1833,-0051,-0924,0188,-0092,0057,108.5130,025.7681,-002.2051
584880115,-1825,-0038,-0919,0157,-0087,0045,107.0017,026.8396,-001.5236
584885894,-1846,-0003,-0900,0132,-0082,0037,106.2717,026.6728,-001.1623
584891625,-1821,0018,-0917,0109,-0082,0030,104.0801,025.8838,000.0120
584897400,-1837,0054,-0910,0085,-0080,0019,102.9029,026.8109,000.6331
584903088,-1834,0116,-0911,0063,-0080,0009,100.7321,026.2618,001.7826
584908782,-1838,0137,-0914,0035,-0078,-0001,097.0706,026.3485,003.8128
584914480,-1836,0173,-0881,0009,-0066,-0007,096.1829,026.3518,004.3045
584920155,-1850,0163,-0886,-0025,-0048,-0016,093.7013,025.4285,005.4909
584925970,-1860,0178,-0852,-0047,-0025,-0028,094.6857,025.4994,004.9740
584931747,-1872,0188,-0838,-0067,-0008,-0041,093.1990,024.3899,005.5181
584937496,-1847,0175,-0872,-0080,0011,-0055,092.5728,023.9645,005.7506
584943232,-1854,0182,-0848,-0087,0022,-0068,094.0130,025.3298,005.3579
584949044,-1860,0170,-0860,-0098,0038,-0073,093.1076,024.3750,005.6268
584954822,-1858,0182,-0877,-0103,0037,-0076,094.2277,024.7746,005.1605
584960636,-1834,0200,-0883,-0109,0034,-0071,093.5853,025.2187,005.6422
584966428,-1832,0204,-0871,-0106,0026,-0064,092.6550,025.6282,006.2969
584972259,-1808,0219,-0847,-0102,0022,-0055,092.3961,025.2458,006.3592
584978061,-1796,0232,-0830,-0096,0007,-0049,091.1128,024.8903,006.9883
584983803,-1736,0243,-0857,-0091,-0003,-0042,090.2096,024.5789,007.4092
584989529,-1707,0268,-0866,-0082,-0008,-0045,090.1705,026.1533,008.0080
584995252,-1679,0256,-0851,-0072,-0028,-0051,088.9659,026.6175,008.9492
585001048,-1636,0253,-0841,-0062,-0038,-0058,089.4545,026.5912,008.6599
585006836,-1629,0235,-0859,-0054,-0045,-0064,089.5032,026.8804,008.7645
585012601,-1650,0236,-0897,-0041,-0051,-0069,090.7154,027.4801,008.2330
585018367,-1650,0219,-0900,-0033,-0052,-0073,091.3263,028.2450,008.1179
585024118,-1641,0258,-0896,-0022,-0052,-0076,092.2684,028.3712,007.5498
585029949,-1679,0238,-0911,-0009,-0059,-0075,090.2750,028.3151,008.8744
585035650,-1707,0268,-0865,0003,-0065,-0063,091.4960,028.2160,008.0303
585041362,-1718,0284,-0880,0011,-0076,-0051,089.1731,026.5315,008.9142
585047138,-1753,0322,-0890,0020,-0089,-0036,088.5792,026.7939,009.4006
585052945,-1769,0312,-0890,0035,-0091,-0017,086.5918,026.4594,010.5396
585058799,-1784,0323,-0898,0053,-0096,0003,087.4685,026.3017,009.9012
585064481,-1802,0351,-0930,0065,-0092,0017,086.8496,026.3211,010.2983
585070312,-1823,0346,-0913,0081,-0088,0034,086.0107,026.9073,011.1163
585076155,-1819,0343,-0923,0096,-0081,0042,086.0222,026.0866,010.6982
585081987,-1830,0350,-0935,0105,-0082,0050,086.3557,026.5271,010.6727
585087787,-1851,0302,-0954,0111,-0079,0058,086.1453,026.6358,010.8427
585093650,-1856,0318,-0961,0119,-0080,0065,089.0005,026.9669,009.1017
585099391,-1848,0328,-0955,0120,-0075,0072,087.9512,027.0177,009.7725
585105205,-1836,0303,-0951,0135,-0065,0080,087.3617,026.9436,010.0951
585111016,-1851,0308,-0971,0150,-0052,0087,088.6103,027.0691,009.2983
585116804,-1848,0309,-0930,0163,-0051,0093,088.4844,027.3729,009.4629
585122591,-1834,0308,-0872,0175,-0049,0099,087.6695,026.2979,009.4987
585128370,-1840,0299,-0901,0188,-0053,0100,086.6044,024.9772,009.5402
585134119,-1828,0304,-0886,0197,-0061,0097,087.7400,025.8735,009.1943
585139925,-1818,0277,-0908,0202,-0069,0093,086.9531,025.4955,009.4698
585145751,-1807,0294,-0913,0209,-0075,0089,088.9672,026.3662,008.5430
585151546,-1742,0276,-0933,0208,-0077,0082,087.7228,026.5034,009.3241
585157355,-1731,0271,-0957,0208,-0077,0082,089.2007,028.0859,008.9362
585163173,-1727,0256,-0918,0207,-0074,0076,089.5572,028.7149,008.8751
585168958,-1710,0251,-0945,0204,-0068,0073,089.6337,027.6203,008.3726
585174728,-1723,0214,-0950,0204,-0061,0071,090.2271,028.7702,008.3307
585180487,-1721,0205,-0940,0206,-0056,0075,092.1854,028.6610,006.9228
585186277,-1714,0204,-0949,0206,-0045,0077,092.2420,028.4428,006.7644
585192084,-1715,0211,-0948,0209,-0037,0082,092.3001,028.8347,006.7764
585197916,-1718,0209,-0934,0214,-0035,0085,091.7852,028.7348,007.0281
585203682,-1699,0221,-0915,0210,-0036,0079,091.6838,028.3128,006.9136
585209481,-1716,0229,-0902,0208,-0044,0084,090.6952,028.0823,007.4298
585215314,-1735,0240,-0920,0202,-0050,0079,090.0344,027.4637,007.6033
585221092,-1752,0223,-0926,0187,-0054,0077,089.6346,027.7270,007.8993
585226907,-1750,0230,-0912,0182,-0055,0082,090.6911,027.6441,007.1499
585232641,-1761,0222,-0903,0173,-0052,0079,089.8429,027.2723,007.5232
585238455,-1759,0253,-0913,0172,-0049,0079,090.2183,026.9067,007.1320
585244299,-1770,0272,-0914,0178,-0051,0076,088.3579,027.2268,008.3570
585250119,-1767,0272,-0920,0179,-0051,0078,087.4819,026.9977,008.7894
585255910,-1751,0287,-0921,0181,-0060,0073,087.6536,027.2503,008.7358
585261699,-1746,0285,-0914,0182,-0067,0072,086.7047,027.4429,009.3892
585267523,-1759,0285,-0925,0183,-0068,0070,086.7751,027.2870,009.2416
585273271,-1731,0283,-0927,0182,-0074,0068,086.8921,027.4348,009.1855
585279090,-1721,0285,-0921,0183,-0068,0065,086.9592,027.8978,009.2849
585284905,-1764,0254,-0944,0182,-0052,0062,086.6781,027.8131,009.4018
585290714,-1735,0241,-0939,0176,-0040,0063,088.7989,027.9148,007.9994
585296515,-1761,0249,-0926,0169,-0034,0064,089.0744,028.2266,007.8841
585302306,-1772,0247,-0893,0164,-0024,0076,088.2956,027.3937,008.0682
585308108,-1769,0220,-0931,0162,-0021,0076,087.9285,026.3914,007.9130
585313919,-1783,0219,-0918,0161,-0020,0082,090.1355,027.7695,006.9505
585319698,-1777,0230,-0905,0163,-0020,0090,089.5851,026.9679,007.0120
585325425,-1772,0242,-0922,0169,-0017,0086,088.7440,026.7723,007.4258
585331243,-1796,0230,-0926,0172,-0015,0086,088.3358,027.3541,007.8329
585337030,-1794,0238,-0931,0181,-0018,0086,089.0860,027.0493,007.2235
585342881,-1775,0266,-0923,0180,-0016,0083,088.5112,027.2500,007.6037
585348675,-1763,0273,-0907,0187,-0022,0080,086.7674,027.2085,008.6538
585354448,-1739,0287,-0893,0185,-0027,0070,086.2794,026.9074,008.8148
585360235,-1727,0309,-0915,0178,-0029,0071,085.2389,026.8619,009.4284
585366041,-1769,0266,-0892,0165,-0035,0066,084.4745,027.6280,010.2312
585371891,-1739,0285,-0900,0148,-0044,0073,086.6219,026.3174,008.2951
585377660,-1743,0277,-0929,0133,-0042,0068,085.2797,027.1354,009.4350
585383469,-1747,0277,-0919,0125,-0034,0064,086.3936,027.8515,008.9650
585389243,-1785,0244,-0909,0130,-0028,0056,086.0229,027.3931,009.0108
585395020,-1788,0237,-0860,0133,-0029,0046,087.8043,026.6813,007.6082
585400867,-1809,0234,-0880,0141,-0035,0040,087.1072,025.2989,007.5297
585406600,-1847,0233,-0877,0145,-0048,0028,087.7034,025.8016,007.3311
585412395,-1856,0240,-0865,0145,-0059,0022,087.5938,025.1373,007.1532
585418230,-1846,0219,-0865,0143,-0064,0021,086.9225,024.7436,007.3752
585424046,-1839,0220,-0875,0137,-0064,0017,088.2960,024.9591,006.6641
585429861,-1820,0202,-0894,0132,-0060,0014,088.1691,025.3117,006.8225
585435650,-1821,0195,-0907,0130,-0045,0007,089.5612,026.1069,006.2404
585441378,-1813,0210,-0896,0131,-0030,-0002,089.9401,026.3670,006.0693
585447112,-1820,0218,-0880,0128,-0020,-0010,088.7984,026.1151,006.6454
585452876,-1809,0227,-0884,0130,-0010,-0013,088.1820,025.5837,006.8237
585458654,-1819,0211,-0871,0133,-0004,-0019,087.7386,025.9099,007.1659
585464377,-1786,0235,-0873,0137,0004,-0025,088.5685,025.3847,006.5134
585470134,-1788,0257,-0868,0136,0006,-0027,086.9345,025.9358,007.6132
585475870,-1764,0257,-0868,0139,0010,-0025,085.6966,025.6350,008.2244
585481625,-1797,0246,-0833,0142,0012,-0023,085.8490,026.0132,008.2610
585487407,-1778,0240,-0820,0143,0015,-0020,085.8473,024.4948,007.6981
585493156,-1774,0250,-0832,0145,0015,-0017,085.9586,024.5802,007.6534
585498933,-1752,0239,-0847,0140,0010,-0008,085.4980,024.9575,008.0355
585504653,-1766,0244,-0853,0133,0009,-0008,086.4601,025.6549,007.7180
585510311,-1783,0237,-0834,0123,0005,0000,086.1491,025.5674,007.8571
585515869,-1788,0226,-0840,0102,0000,0011,086.2422,024.8250,007.5354
585521526,-1795,0223,-0858,0083,-0010,0016,087.0165,025.0056,007.1573
585527286,-1820,0201,-0856,0061,-0019,0026,087.4083,025.4271,007.0685
585533068,-1818,0203,-0855,0045,-0033,0025,088.7291,024.9897,006.1966
585538842,-1815,0204,-0838,0038,-0040,0018,088.3907,025.0428,006.3956
585544591,-1806,0219,-0818,0032,-0049,0006,088.1085,024.5700,006.4106
585550306,-1794,0201,-0823,0023,-0046,-0005,086.8206,024.1431,006.9726
585556040,-1788,0200,-0839,0014,-0039,-0017,088.2963,024.5346,006.3119
585561839,-1804,0191,-0860,0011,-0028,-0024,088.4640,025.0519,006.3796
585567602,-1791,0186,-0843,0006,-0017,-0028,089.3786,025.4019,005.9802
585573301,-1818,0201,-0835,0004,-0016,-0026,089.3408,025.0420,005.9115
585578998,-1830,0193,-0833,0002,-0012,-0022,088.2416,024.4645,006.3507
585584710,-1813,0182,-0833,-0003,-0016,-0018,088.9038,024.3319,005.9705
585590436,-1795,0184,-0863,-0004,-0022,-0012,089.5749,024.5906,005.6931
585596166,-1808,0218,-0828,-0006,-0027,-0011,089.7910,025.6969,005.8737
585601895,-1795,0232,-0870,-0011,-0030,-0003,086.9726,024.2644,007.0099
585607589,-1801,0234,-0840,-0018,-0033,-0003,087.2085,025.8625,007.4189
585613288,-1812,0269,-0868,-0030,-0031,-0001,086.5573,024.6697,007.4047
585618962,-1796,0274,-0858,-0031,-0025,0000,085.0145,025.4246,008.5818
585624578,-1803,0299,-0894,-0036,-0019,-0003,084.7552,025.2503,008.6897
585630296,-1791,0305,-0843,-0035,-0010,-0004,084.0497,026.1637,009.5175
585635981,-1785,0277,-0830,-0029,-0008,-0011,082.7906,024.7249,009.6827
585641709,-1762,0287,-0863,-0026,-0009,-0021,084.4628,024.6641,008.7115
585647474,-1779,0278,-0862,-0026,-0015,-0026,084.3658,025.9412,009.3190
585653240,-1788,0255,-0848,-0018,-0022,-0032,084.9629,025.5180,008.8094
585659043,-1771,0265,-0831,-0009,-0032,-0033,086.0923,025.0807,008.0023
585664750,-1782,0264,-0888,0000,-0042,-0035,085.0284,024.8563,008.5440
585670370,-1784,0255,-0853,0004,-0048,-0033,086.2960,026.3998,008.3968
585676082,-1782,0250,-0837,0014,-0055,-0030,086.0777,025.1757,008.0868
585681817,-1775,0272,-0849,0021,-0060,-0029,086.1411,024.8923,007.9569
585687615,-1752,0274,-0849,0025,-0066,-0026,084.9916,025.3339,008.8018
585693379,-1755,0265,-0848,0036,-0063,-0018,085.0403,025.5819,008.8812
585699164,-1766,0262,-0863,0035,-0067,-0014,085.5710,025.5053,008.5432
585704935,-1781,0275,-0887,0043,-0066,-0010,085.9959,025.8089,008.4113
585710661,-1786,0259,-0865,0044,-0060,-0005,085.6053,026.2399,008.8185
585716376,-1786,0271,-0852,0045,-0063,0005,086.2260,025.4986,008.1667
585722091,-1787,0274,-0862,0045,-0062,0007,085.1482,025.1919,008.6836
585727809,-1814,0263,-0872,0050,-0059,0015,085.3097,025.5120,008.7171
585733554,-1819,0258,-0866,0050,-0060,0021,086.1448,025.4091,008.1862
585739274,-1831,0245,-0886,0051,-0058,0026,086.2268,025.1936,008.0579
585745058,-1821,0259,-0882,0055,-0057,0027,087.3579,025.6561,007.5633
585750819,-1821,0264,-0883,0060,-0052,0028,086.2897,025.5936,008.1617
585756570,-1811,0262,-0856,0070,-0048,0023,086.1428,025.6228,008.2546
585762319,-1812,0253,-0873,0077,-0048,0022,085.7751,024.9791,008.2220
585768110,-1786,0263,-0871,0083,-0044,0014,086.7003,025.5700,007.8971
585773904,-1792,0262,-0865,0080,-0040,0010,085.8960,025.7715,008.4409
585779617,-1802,0250,-0840,0078,-0040,0008,085.9632,025.4833,008.2887
585785265,-1781,0244,-0853,0074,-0043,0001,086.2314,024.6842,007.8375
585790967,-1775,0248,-0880,0069,-0044,0000,086.8094,025.4585,007.7824
585796570,-1782,0217,-0843,0064,-0044,0001,086.9550,026.2188,007.9619
585802318,-1802,0211,-0864,0061,-0047,-0001,088.2363,025.0191,006.8191
585808027,-1806,0223,-0889,0060,-0050,0005,088.7975,025.5070,006.6482
585813707,-1804,0215,-0846,0064,-0044,0013,088.3447,026.0873,007.0806
585819515,-1784,0209,-0835,0067,-0043,0018,088.2008,024.7870,006.7482
585825311,-1797,0212,-0892,0070,-0044,0025,088.4106,024.9336,006.6693
585831052,-1789,0219,-0907,0077,-0042,0028,089.0635,026.4216,006.7326
585836838,-1800,0229,-0869,0080,-0039,0033,088.7347,026.7423,007.0125
585842567,-1796,0240,-0868,0084,-0039,0031,087.5565,025.4282,007.2760
585848369,-1787,0268,-0848,0085,-0035,0028,086.9827,025.6102,007.6582
585854114,-1794,0264,-0839,0087,-0030,0023,084.9300,025.0642,008.6425
585859873,-1809,0275,-0856,0084,-0025,0017,085.2916,024.7872,008.3225
585865632,-1795,0281,-0849,0081,-0022,0012,084.8834,025.1045,008.6790
585871407,-1810,0257,-0845,0073,-0016,0010,084.4216,025.0324,008.9202
585877153,-1818,0235,-0893,0065,-0014,0009,085.9231,024.7712,007.9577
585882842,-1836,0258,-0870,0058,-0008,0013,087.8917,026.1185,007.2855
585888558,-1826,0236,-0858,0058,-0002,0018,085.8891,025.0319,008.0711
585894317,-1833,0233,-0826,0059,0003,0021,087.2727,024.9809,007.2689
585900042,-1818,0232,-0851,0065,0007,0018,086.7070,023.9786,007.2366
585905774,-1826,0211,-0827,0070,0005,0025,087.2836,025.0417,007.2747
585911447,-1812,0215,-0838,0066,0002,0022,088.1460,024.1280,006.5083
585917196,-1803,0212,-0819,0067,-0004,0024,087.9427,024.7467,006.8028
585922920,-1790,0213,-0813,0056,-0014,0026,087.8292,024.2173,006.6936
585928770,-1792,0215,-0818,0041,-0011,0030,087.6588,024.2779,006.8023
585934518,-1804,0218,-0833,0034,-0010,0034,087.6290,024.3881,006.8532
585940276,-1786,0205,-0836,0026,-0004,0043,087.6892,024.6607,006.9082
585946020,-1799,0201,-0832,0024,0003,0051,088.5720,024.9731,006.5201
585951765,-1795,0210,-0838,0030,0005,0050,088.6647,024.6466,006.3702
585957427,-1823,0199,-0848,0035,0005,0045,088.1599,024.9054,006.7209
585963123,-1810,0215,-0847,0035,0000,0045,089.0907,024.8044,006.1792
585968687,-1816,0224,-0816,0037,0000,0035,087.9404,024.9356,006.8459
585974310,-1816,0222,-0783,0032,-0013,0028,086.9457,023.9244,007.0577
585980131,-1820,0228,-0820,0022,-0017,0022,086.5758,023.0551,006.9614
585985931,-1821,0236,-0810,0014,-0017,0013,086.9543,024.2470,007.1724
585991756,-1784,0220,-0798,0006,-0009,0009,086.1742,023.7269,007.4194
585997386,-1792,0197,-0807,-0003,-0010,0009,087.1175,023.9466,007.0059
586003027,-1818,0203,-0818,-0016,-0007,0005,088.7452,024.1233,006.2143
586008752,-1794,0197,-0809,-0017,-0004,0004,088.3926,024.0830,006.3978
586014416,-1813,0192,-0825,-0019,0002,0002,088.7164,024.1474,006.2578
586020046,-1800,0174,-0813,-0023,-0001,0000,089.3052,024.3688,006.0219
586025591,-1815,0200,-0813,-0022,-0003,-0002,090.2568,024.1899,005.4848
586031223,-1803,0213,-0822,-0026,-0003,-0005,088.4220,023.9716,006.3898
586036900,-1814,0202,-0822,-0024,-0004,-0012,087.9613,024.4027,006.7810
586042582,-1822,0199,-0834,-0025,0000,-0013,088.7922,024.2199,006.2961
586048171,-1819,0196,-0791,-0027,-0004,-0015,089.0996,024.4894,006.2246
586053876,-1818,0206,-0820,-0025,0000,-0015,088.5856,023.2441,006.1388
586059462,-1809,0221,-0796,-0031,-0007,-0016,088.4881,024.2433,006.5034
586065176,-1806,0201,-0819,-0031,-0007,-0019,087.0925,023.5098,007.0169
586070896,-1832,0218,-0857,-0024,-0007,-0023,089.0833,024.3577,006.2533
586076614,-1818,0230,-0821,-0021,-0005,-0019,088.3542,024.9817,006.8510
586082356,-1820,0227,-0800,-0020,-0003,-0018,087.0550,024.0120,007.2551
586088028,-1830,0223,-0822,-0017,-0002,-0021,087.0780,023.5033,007.0848
586093737,-1842,0242,-0818,-0015,-0006,-0021,087.7880,024.0965,006.9229
586099443,-1837,0230,-0818,-0016,-0003,-0022,086.3996,023.7180,007.5464
586105151,-1842,0238,-0835,-0016,-0005,-0021,087.3983,023.8473,007.0781
586110907,-1836,0231,-0797,-0011,-0009,-0022,087.0920,024.2481,007.3928
586116631,-1849,0233,-0809,-0009,-0004,-0020,086.9012,023.1753,007.1359
586122281,-1833,0231,-0804,-0003,-0002,-0021,087.0545,023.4947,007.1793
586127946,-1811,0231,-0816,0000,-0005,-0023,087.1023,023.5157,007.1735
586133485,-1814,0219,-0823,-0005,0000,-0017,087.3421,024.1430,007.2738
586139060,-1830,0231,-0837,-0011,-0004,-0011,088.2471,024.2549,006.8371
586144806,-1838,0215,-0787,-0017,-0001,-0009,087.6242,024.4239,007.2422
586150467,-1837,0238,-0841,-0021,0007,0000,087.8826,022.8804,006.6106
586156025,-1828,0221,-0808,-0024,0003,0003,087.3534,024.5772,007.4695
586161648,-1848,0200,-0844,-0026,0001,0006,087.9419,023.5914,006.8367
586167290,-1846,0228,-0846,-0020,-0002,0009,089.8726,024.5071,006.1109
586172940,-1844,0209,-0839,-0010,-0001,0010,087.9345,024.4483,007.1445
586178604,-1836,0214,-0860,0000,-0003,0004,089.2632,024.3102,006.3936
586184094,-1839,0208,-0832,0010,-0006,0000,089.1500,024.9982,006.6670
586189619,-1824,0232,-0830,0019,-0002,-0002,089.1093,024.1389,006.4312
586195303,-1818,0242,-0834,0022,-0001,-0007,087.5096,024.3124,007.3477
586200968,-1833,0237,-0841,0016,0002,-0004,087.1491,024.4693,007.6073
586206647,-1825,0234,-0807,0015,0006,-0007,087.6606,024.4665,007.3335
586212300,-1811,0243,-0830,0014,0008,-0006,087.1760,023.5898,007.2983
586217967,-1806,0223,-0848,0003,0011,-0009,087.1034,024.5460,007.6859
586223628,-1804,0217,-0822,-0002,0013,-0010,088.7487,025.0453,006.9511
586229345,-1815,0211,-0834,-0003,0013,-0008,088.4985,024.2541,006.8447
586234993,-1814,0198,-0827,-0006,0017,-0007,089.1516,024.5724,006.6023
586240712,-1831,0206,-0855,-0002,0019,-0010,089.8477,024.3582,006.1736
586246419,-1794,0193,-0861,0000,0020,-0009,089.6815,024.9663,006.4473
586251960,-1822,0188,-0873,0008,0019,-0011,090.6258,025.5750,006.1006
586257709,-1804,0223,-0860,0011,0018,-0008,091.0152,025.4761,005.8585
586263454,-1812,0205,-0832,0014,0017,-0007,088.5211,025.3013,007.2117
586269184,-1807,0233,-0847,0001,0016,-0003,089.6005,024.4231,006.3515
586274849,-1781,0226,-0857,-0012,0017,0003,087.8893,025.0040,007.4848
586280544,-1786,0219,-0820,-0024,0014,0011,088.7361,025.5838,007.2094
586286318,-1781,0227,-0848,-0039,0015,0020,088.4695,024.3849,006.9826
586292060,-1794,0212,-0843,-0046,0011,0024,088.4913,025.3996,007.3194
586297853,-1784,0206,-0857,-0046,0016,0027,089.4144,024.9628,006.6764
586303699,-1802,0185,-0837,-0037,0013,0026,089.9293,025.5975,006.5907
586309497,-1809,0199,-0857,-0016,0012,0021,090.9655,024.6863,005.7691
586315272,-1818,0235,-0857,0008,0012,0018,090.1926,025.2997,006.3619
586320970,-1801,0233,-0851,0026,0006,0014,088.0231,025.0263,007.4918
586326701,-1802,0248,-0858,0040,-0006,0011,088.3268,025.1169,007.3510
586332403,-1770,0261,-0850,0047,-0011,0009,087.4590,025.2666,007.8966
586338109,-1774,0267,-0858,0043,-0009,0007,086.6335,025.4238,008.4372
586343796,-1777,0257,-0831,0035,-0007,0011,086.5110,025.5729,008.5714
586349519,-1785,0245,-0811,0024,0002,0014,086.6336,024.7606,008.1959
586355248,-1770,0230,-0822,0015,0014,0019,087.0047,024.1842,007.7824
586361024,-1791,0233,-0830,0009,0019,0025,088.1418,024.7866,007.3748
586366722,-1804,0212,-0847,0011,0019,0026,087.9907,024.6742,007.4252
586372524,-1826,0222,-0855,0020,0015,0030,089.7142,025.0558,006.5954
586378243,-1823,0192,-0859,0032,0006,0027,088.9379,024.9148,006.9792
586383985,-1820,0229,-0872,0041,-0002,0029,091.0279,025.1321,005.8861
586389719,-1809,0219,-0843,0045,-0010,0027,088.5869,025.4589,007.3450
586395449,-1803,0228,-0818,0049,-0012,0030,089.0501,024.7358,006.8457
586401181,-1802,0222,-0860,0048,-0007,0033,087.9359,024.1635,007.2583
586406874,-1799,0217,-0835,0045,-0005,0040,089.1982,025.5120,006.9967
586412531,-1814,0219,-0832,0046,0002,0039,088.9246,024.6509,006.8709
586418254,-1819,0232,-0821,0042,0008,0039,088.7638,024.4610,006.8935
586424003,-1822,0220,-0849,0048,0009,0038,087.7104,024.0732,007.3281
586429720,-1807,0226,-0847,0055,0004,0034,089.1361,024.9296,006.8277
586435433,-1827,0218,-0840,0056,-0001,0029,088.5141,024.9451,007.1716
586441143,-1827,0226,-0828,0057,-0015,0026,088.9841,024.4814,006.7582
586446931,-1813,0222,-0843,0060,-0016,0021,088.1683,024.1722,007.0910
586452699,-1803,0233,-0799,0053,-0014,0021,088.8086,024.8603,006.9625
586458480,-1801,0215,-0800,0046,-0007,0025,087.1665,023.5820,007.4136
586464126,-1823,0217,-0808,0040,0021,0030,088.5862,023.8296,006.7518
586469863,-1795,0200,-0840,0046,0041,0032,088.4482,023.7599,006.7986
586475670,-1784,0217,-0843,0052,0052,0036,090.1664,025.1488,006.2936
586481478,-1814,0219,-0799,0059,0054,0044,088.8268,025.1492,007.0307
586487300,-1835,0246,-0793,0070,0044,0047,088.0625,023.4213,006.8704
586493058,-1861,0238,-0803,0075,0032,0048,086.1699,023.1658,007.7515
586498828,-1856,0236,-0798,0082,0016,0049,087.1654,023.1789,007.2337
586504665,-1813,0237,-0769,0086,0015,0052,087.0472,023.0948,007.2545
586510420,-1795,0235,-0830,0081,0023,0053,086.3730,022.7861,007.4785
586516178,-1823,0239,-0790,0072,0038,0053,087.8110,024.9282,007.4650
586521970,-1818,0223,-0800,0069,0053,0054,086.5223,023.0327,007.4798
586527714,-1843,0235,-0830,0070,0063,0058,088.0190,023.7042,006.9316
586533462,-1851,0223,-0838,0073,0078,0058,087.5510,024.1525,007.3229
586539236,-1845,0239,-0825,0074,0086,0054,088.5266,024.2442,006.8214
586545007,-1831,0220,-0826,0077,0103,0048,087.1055,023.9130,007.4621
586550793,-1852,0226,-0850,0077,0110,0051,088.5689,024.2035,006.7708
586556557,-1852,0227,-0883,0082,0114,0046,088.3726,024.5761,006.9867
586562382,-1880,0251,-0851,0088,0116,0042,088.8601,025.4727,006.9910
586568152,-1864,0240,-0888,0093,0117,0042,086.7831,024.0871,007.6653
586573964,-1872,0246,-0886,0088,0112,0037,088.2952,025.4852,007.2971
586579799,-1883,0249,-0893,0085,0109,0036,087.7099,025.1455,007.5082
586585651,-1870,0259,-0934,0090,0103,0039,087.6929,025.2277,007.5367
586591423,-1899,0269,-0917,0102,0097,0040,087.7537,026.4708,007.9183
586597186,-1909,0278,-0903,0108,0083,0031,086.9252,025.5298,008.0656
586602980,-1889,0296,-0911,0109,0066,0023,086.2318,025.0813,008.2915
586608770,-1849,0290,-0944,0114,0057,0000,085.4203,025.5359,008.9388
586614397,-1836,0310,-0960,0115,0041,-0015,086.3591,026.8788,008.8851
586620170,-1791,0293,-0996,0105,0018,-0039,085.5007,027.3248,009.6173
586625978,-1746,0295,-1037,0103,0005,-0053,087.0603,028.9515,009.2047
586631747,-1721,0250,-1011,0129,-0001,-0060,087.3627,030.5509,009.5899
586637424,-1673,0238,-1014,0150,0006,-0057,089.2208,030.1325,008.0482
586643134,-1651,0213,-1105,0180,0008,-0057,089.6032,031.0600,008.0372
586648894,-1653,0201,-1167,0207,0012,-0041,091.7372,034.0259,007.1573
586654675,-1634,0255,-1219,0224,0023,-0020,092.3889,035.1872,006.8308
586660455,-1663,0242,-1276,0221,0041,0007,090.3453,036.5845,009.0982
586666195,-1695,0248,-1334,0209,0072,0049,091.4276,037.2980,008.1730
586672036,-1724,0244,-1332,0177,0104,0103,091.4048,037.9926,008.3267
586677926,-1786,0200,-1311,0147,0128,0150,091.4207,037.4503,008.0688
586683730,-1824,0135,-1259,0110,0144,0184,092.6553,036.1841,006.4553
586689635,-1810,0068,-1200,0082,0166,0198,094.6615,034.5975,004.2799
586695474,-1755,0048,-1160,0084,0184,0197,097.0343,033.5552,002.1286
586701291,-1690,0005,-1111,0086,0207,0192,097.6379,033.5262,001.5701
586707030,-1581,-0010,-1055,0103,0231,0185,099.4739,033.3824,000.0315
586712848,-1512,-0044,-0981,0161,0243,0171,099.8034,033.8107,-000.3358
586718698,-1492,-0064,-0945,0224,0249,0161,101.0866,033.1953,-001.4539
586724551,-1513,-0042,-0938,0300,0241,0153,102.0087,032.5997,-002.2646
586730362,-1540,-0005,-0960,0377,0227,0161,101.1733,032.0317,-001.7526
586736156,-1593,0047,-0951,0467,0212,0172,099.1827,032.0347,-000.4589
586741983,-1638,0096,-0951,0528,0183,0197,096.2178,031.0025,001.4689
586747808,-1729,0123,-0940,0557,0153,0223,093.2178,030.1817,003.2874
586753684,-1832,0155,-0915,0550,0121,0241,091.2481,028.3426,004.1331
586759503,-1877,0166,-0905,0525,0064,0269,089.0307,026.2823,004.9192
586765303,-1888,0159,-0931,0506,0003,0281,088.2552,025.6090,005.0823
586771062,-1931,0145,-0911,0476,-0072,0287,088.7624,026.2009,004.8118
586776882,-1965,0103,-0942,0451,-0121,0280,089.1029,025.0946,004.2872
586782702,-1946,0085,-0929,0422,-0161,0257,091.5160,025.5439,002.9681
586788500,-1946,0089,-0960,0381,-0189,0230,092.1966,025.4242,002.4944
586794314,-1920,0078,-0969,0354,-0203,0213,091.9247,026.1978,002.6392
586800137,-1880,0051,-0890,0327,-0201,0201,092.4407,026.7196,002.3188
586805930,-1843,-0005,-0901,0324,-0184,0168,093.5756,025.1198,001.4863
586811705,-1726,-0023,-0876,0343,-0154,0134,096.9887,026.1093,-000.3860
586817509,-1679,-0029,-0927,0394,-0125,0115,097.5490,026.8982,-000.8193
586823323,-1596,-0047,-0914,0452,-0112,0110,097.6017,028.9268,-001.0524
586829179,-1590,-0061,-0915,0529,-0106,0110,098.3197,029.6595,-001.7061
586835015,-1575,-0086,-0897,0612,-0130,0122,098.8400,029.8124,-002.2373
586840860,-1518,-0068,-0857,0665,-0192,0142,099.8904,029.5587,-003.0964
586846668,-1468,-0076,-0831,0674,-0274,0157,099.1577,029.3314,-002.7824
586852533,-1386,-0076,-0759,0650,-0356,0166,099.1884,029.2725,-002.9824
586858319,-1288,-0063,-0762,0603,-0409,0160,099.2506,028.7736,-003.1293
586864133,-1220,-0036,-0786,0517,-0448,0144,098.7661,029.3643,-003.0414
586869977,-1151,-0016,-0756,0410,-0459,0124,097.6894,030.4866,-002.5736
586875810,-1096,0014,-0802,0308,-0457,0090,096.7504,031.1498,-002.0787
586881601,-1095,0022,-0830,0200,-0434,0058,095.5263,032.4063,-001.3381
586887369,-1090,0054,-0797,0111,-0431,0032,094.5062,033.6537,-000.6379
586893157,-1109,0083,-0734,0037,-0450,0021,093.3190,034.1640,000.2982
586898918,-1158,0086,-0680,-0053,-0495,0006,092.0417,033.7867,001.3323
586904636,-1183,0113,-0634,-0127,-0532,0005,090.9401,032.6742,002.1523
586910425,-1212,0124,-0653,-0185,-0546,-0008,089.5205,031.2305,003.1018
586916194,-1268,0183,-0608,-0233,-0563,-0030,088.1185,030.0846,003.9810
586921968,-1335,0245,-0667,-0270,-0566,-0038,085.4059,028.2765,005.4821
586927798,-1444,0331,-0720,-0281,-0550,-0038,081.4203,027.1137,007.7381
586933610,-1603,0481,-0774,-0286,-0506,-0039,075.8706,026.1703,010.9691
586939474,-1778,0585,-0824,-0274,-0462,-0054,067.1520,024.7226,016.2205
586945368,-2003,0705,-0875,-0242,-0431,-0065,062.9562,023.4084,018.4955
586951178,-2277,0786,-0910,-0216,-0422,-0081,060.7688,022.2660,019.3082
586957051,-2501,0855,-0870,-0196,-0428,-0071,059.6591,021.0688,019.1152
586962918,-2753,0935,-0902,-0180,-0455,-0058,058.3235,019.8603,019.0063
586968720,-2997,0948,-0889,-0213,-0461,-0006,058.1720,019.6488,019.0105
586974492,-3159,0950,-0860,-0223,-0476,0028,057.9868,019.4314,019.0287
586980288,-3070,0991,-0717,-0285,-0577,-0053,057.7891,019.1667,019.0179
586986092,-3121,0836,-0772,-0387,-0761,-0215,057.5783,018.8185,018.9463
586991941,-3004,0506,-0785,-0399,-0784,-0234,057.3546,018.4573,018.8668
586997792,-2813,0239,-0774,-0253,-0571,-0054,057.1392,018.1966,018.8511
587003684,-2587,0201,-0827,-0211,-0262,0095,058.9861,017.7648,017.1610
587009579,-2349,0199,-0760,-0197,0025,0205,068.6049,017.8226,011.7641
587015429,-2198,0168,-0699,-0272,0069,0306,080.3870,017.8934,006.7437
587021258,-2088,0131,-0616,-0375,0033,0358,085.6224,017.6137,004.7458
587027072,-1993,0108,-0539,-0438,-0009,0386,087.6802,016.3483,003.7590
587032840,-1900,0057,-0496,-0466,-0011,0392,088.4713,014.9617,003.2373
587038659,-1798,0121,-0435,-0471,0034,0361,093.6568,014.5915,001.7603
587044470,-1713,0155,-0386,-0464,0087,0313,085.3872,013.6715,003.8487
587050295,-1687,0231,-0325,-0452,0129,0239,080.2463,012.9007,005.0199
587056127,-1661,0348,-0295,-0444,0169,0189,069.8039,011.3897,007.1900
587061964,-1670,0448,-0289,-0415,0190,0126,056.8006,010.3148,010.6630
587067854,-1686,0572,-0227,-0374,0199,0079,047.8497,009.6998,014.1401
587073674,-1678,0715,-0236,-0309,0178,0040,037.1935,007.6737,018.0348
587079460,-1684,0829,-0215,-0260,0162,0019,032.8869,007.4005,022.6665
587085254,-1707,0936,-0280,-0191,0135,0003,029.4555,006.5353,026.1916
587091003,-1725,0994,-0326,-0133,0112,-0006,031.7572,008.3724,029.0524
587096748,-1737,1055,-0364,-0068,0085,-0002,033.2858,009.4382,030.0957
587102457,-1759,1114,-0336,0039,0069,0004,034.1798,010.2520,031.4127
587108270,-1781,1132,-0314,0165,0039,0013,032.2520,009.0948,032.4285
587114093,-1766,1126,-0321,0273,0003,0015,031.4686,008.4624,032.4295
587119814,-1749,1065,-0298,0349,-0026,0014,032.0251,008.7831,032.5149
587125633,-1727,1023,-0328,0431,-0014,0011,031.8621,008.3007,031.1906
587131428,-1676,0987,-0350,0515,-0004,0009,034.0391,009.5073,030.5424
587137051,-1630,0909,-0339,0581,0000,0030,035.4129,010.3643,030.4677
587142706,-1609,0847,-0336,0621,0021,0063,036.1159,010.4159,029.1940
587148541,-1572,0821,-0389,0640,0055,0100,037.1003,010.5973,027.8930
587154389,-1552,0770,-0420,0671,0066,0141,039.9694,012.2806,027.6303
587160273,-1515,0678,-0398,0694,0064,0179,042.5888,013.5282,026.6309
587166168,-1517,0552,-0401,0694,0054,0201,044.0455,013.6342,024.8773
587172015,-1522,0463,-0443,0695,0056,0207,047.3858,013.9703,021.8025
587177896,-1503,0386,-0468,0682,0062,0206,052.8450,015.0900,018.7735
587183768,-1516,0308,-0418,0679,0090,0201,058.3697,016.2051,016.2262
587189600,-1580,0264,-0417,0698,0139,0191,061.9747,015.7326,013.5851
587195531,-1622,0233,-0465,0727,0210,0175,066.2452,015.1527,010.9665
587201434,-1699,0223,-0442,0745,0263,0146,071.9179,015.7931,008.9768
587207263,-1771,0225,-0444,0738,0289,0119,073.5655,014.8951,007.7635
587213080,-1857,0284,-0443,0719,0306,0102,073.7248,014.2159,007.2645
587218939,-1923,0297,-0425,0707,0323,0082,067.7081,013.3836,008.7365
587224718,-1963,0334,-0471,0698,0345,0062,065.3447,012.3451,008.7512
587230551,-2003,0355,-0468,0690,0361,0032,065.0631,013.6325,009.7412
587236340,-2010,0369,-0630,0690,0380,-0006,063.0412,013.0771,010.0192
587242129,-2039,0442,-0650,0662,0337,-0051,069.9355,017.6733,010.3443
587247992,-2025,0508,-0881,0617,0211,-0089,065.5008,017.4149,012.2117
587253857,-2037,0532,-0983,0556,0088,-0115,069.4113,023.0204,013.9705
587259720,-2081,0466,-1034,0485,-0055,-0121,070.5415,024.9190,014.4529
587265594,-2150,0320,-1097,0427,-0190,-0093,073.7005,025.7136,012.7206
587271513,-2183,0193,-1170,0333,-0314,-0030,079.6375,026.4835,009.1817
587277341,-2139,0052,-1310,0194,-0417,0070,085.1187,027.5411,006.0821
587283127,-2006,-0089,-1416,0025,-0447,0197,090.9330,030.2240,002.7950
587288894,-1892,-0222,-1526,-0107,-0419,0340,096.4521,033.9918,-001.1935
587294733,-1859,-0295,-1511,-0170,-0354,0448,100.5736,037.7298,-005.4021
587300607,-1958,-0412,-1427,-0193,-0258,0540,102.9138,038.5016,-008.1249
587306506,-2086,-0379,-1279,-0199,-0210,0600,106.1068,036.1224,-010.7379
587312379,-2247,-0328,-1140,-0236,-0217,0640,106.8851,032.3557,-010.0841
587318263,-2369,-0199,-1064,-0322,-0254,0670,106.6559,028.4994,-008.5358
587324164,-2392,-0020,-1048,-0393,-0273,0685,103.7566,025.8168,-005.9285
587330002,-2397,0190,-1010,-0405,-0228,0664,097.5712,024.4954,-002.3786
587335848,-2393,0375,-0961,-0338,-0132,0604,088.5412,023.4592,002.0387
587341666,-2416,0528,-0943,-0241,-0050,0528,078.9541,022.3772,006.3956
587347497,-2458,0679,-0800,-0084,0013,0444,071.4064,021.5752,009.8373
587353276,-2473,0817,-0729,0042,-0004,0315,063.4445,019.5002,012.8067
587359064,-2409,0971,-0700,0131,-0079,0160,056.3744,017.7095,015.4025
587364908,-2297,1005,-0759,0202,-0156,0019,049.4831,016.4010,018.6059
587370804,-2152,1024,-0786,0271,-0209,-0110,046.3230,016.6239,021.5083
587376706,-2006,0973,-0779,0320,-0225,-0204,045.3109,017.7918,024.2831
587382594,-1913,0873,-0821,0367,-0226,-0292,046.0372,019.0825,025.5345
587388489,-1824,0741,-0860,0399,-0220,-0350,050.0692,021.2964,024.3252
587394348,-1746,0594,-0876,0412,-0226,-0372,055.6510,023.7458,021.7121
587400246,-1662,0424,-0942,0415,-0238,-0379,061.7668,025.6182,018.0960
587406121,-1578,0256,-0927,0416,-0228,-0384,070.3006,029.0758,013.6183
587411983,-1467,0084,-0920,0430,-0204,-0389,076.4910,029.9764,009.3232
587417813,-1379,-0043,-0915,0439,-0191,-0398,083.5282,031.4867,004.5718
587423629,-1289,-0172,-0933,0440,-0187,-0398,089.3840,032.7607,000.2898
587429480,-1218,-0248,-0912,0422,-0184,-0389,095.0474,034.3806,-004.4061
587435319,-1108,-0357,-0906,0419,-0190,-0376,098.9814,035.2569,-008.1228
587441181,-1105,-0317,-0909,0369,-0167,-0337,102.8043,036.3446,-012.3224
587447075,-1102,-0389,-0871,0355,-0136,-0294,103.9554,037.0728,-014.0113
587452982,-1155,-0389,-0897,0336,-0098,-0226,106.0015,036.8749,-016.3431
587458896,-1196,-0360,-0908,0314,-0066,-0142,107.0410,036.5750,-017.5321
587464779,-1265,-0290,-0894,0281,-0039,-0004,106.7905,036.2511,-017.2246
587470593,-1266,-0259,-0866,0244,-0028,0116,105.0665,035.3542,-014.9745
587476496,-1264,-0231,-0861,0203,-0010,0272,103.5119,034.5727,-013.1807
587482385,-1258,-0188,-0857,0143,-0018,0412,101.8928,034.1909,-011.6471
587488305,-1244,-0174,-0828,0079,-0038,0493,099.8922,034.0723,-009.9435
587494157,-1270,-0118,-0816,0018,-0076,0563,098.5995,033.7424,-008.8369
587499971,-1296,-0063,-0787,-0035,-0112,0617,096.4353,033.2011,-006.9791
587505779,-1361,-0023,-0806,-0088,-0165,0647,093.7934,032.2674,-004.7776
587511593,-1415,-0005,-0781,-0102,-0213,0679,090.7012,031.3279,-002.4419
587517373,-1425,0045,-0778,-0093,-0255,0717,088.4187,029.8465,-000.8485
587523155,-1587,0086,-0725,-0051,-0374,0738,085.4291,028.9863,001.0109
587528914,-1665,0175,-0799,-0054,-0524,0702,081.6947,025.5092,002.8358
587534728,-1790,0222,-0776,-0056,-0580,0674,075.6607,025.2740,006.0286
587540564,-1927,0217,-0753,-0047,-0644,0634,071.5455,022.8387,007.4055
587546453,-2076,0219,-0758,-0030,-0673,0580,071.7770,020.7674,006.5414
587552243,-2159,0218,-0758,0009,-0682,0488,071.6557,019.6855,006.2057
587558008,-2207,0189,-0779,0036,-0685,0378,071.7328,019.0119,005.9328
587563830,-2288,0145,-0811,0047,-0680,0251,073.8670,019.0599,005.0940
587569631,-2334,-0001,-0788,0051,-0687,0118,076.8489,019.1195,003.9517
587575355,-2329,-0047,-0770,0060,-0657,0016,084.7974,018.5155,000.9527
587581136,-2365,-0095,-0778,0082,-0617,-0090,089.6056,018.0920,-000.7266
587586844,-2364,-0063,-0803,0118,-0569,-0160,093.1626,017.9366,-001.9423
587592669,-2354,-0127,-0893,0167,-0480,-0214,092.4483,018.3355,-001.7477
587598528,-2339,-0123,-0824,0206,-0398,-0240,094.7775,019.8866,-002.8288
587604441,-2342,-0068,-0788,0240,-0337,-0252,095.6536,019.3576,-003.1035
587610278,-2358,-0002,-0775,0279,-0325,-0247,093.2945,018.6364,-002.1481
587616017,-2325,0085,-0796,0325,-0283,-0242,089.3339,018.1947,-000.7432
587621800,-2293,0143,-0776,0345,-0273,-0226,083.4389,018.6212,001.3015
587627630,-2248,0207,-0783,0347,-0247,-0241,078.6308,018.5594,002.9967
587633506,-2212,0253,-0722,0341,-0203,-0253,074.0351,018.9739,004.7888
587639333,-2178,0301,-0662,0314,-0185,-0290,069.5784,018.0053,006.1828
587645169,-2141,0276,-0648,0281,-0168,-0330,064.5080,016.7726,007.5942
587651026,-2085,0286,-0642,0243,-0147,-0376,065.5254,016.6573,007.1634
587656840,-2063,0292,-0652,0191,-0115,-0425,064.6789,016.9303,007.6282
587662659,-2037,0244,-0655,0158,-0074,-0453,064.6711,017.3675,007.8677
587668506,-1989,0211,-0652,0145,-0021,-0457,068.5068,017.7231,006.5572
587674322,-1961,0149,-0641,0158,0037,-0449,070.9130,018.1041,005.8035
587680154,-1930,0166,-0666,0168,0088,-0423,075.8923,018.0828,003.9746
